[{
        "SDTMVAR": "ACTARM",
        "SDTMDOM": "DM"
    }, {
        "SDTMVAR": "ACTARMCD",
        "SDTMDOM": "DM"
    }, {
        "SDTMVAR": "ACTARMUD",
        "SDTMDOM": "DM"
    }, {
        "SDTMVAR": "AGE",
        "SDTMDOM": "DM"
    }, {
        "SDTMVAR": "AGETXT",
        "SDTMDOM": "DM"
    }, {
        "SDTMVAR": "AGEU",
        "SDTMDOM": "DM"
    }, {
        "SDTMVAR": "APID",
        "SDTMDOM": "RELREC;SUPPQUAL;POOLDEF;APRELSUB"
    }, {
        "SDTMVAR": "ARM",
        "SDTMDOM": "DM;TA;TV"
    }, {
        "SDTMVAR": "ARMCD",
        "SDTMDOM": "DM;TA;TV"
    }, {
        "SDTMVAR": "ARMNRS",
        "SDTMDOM": "DM"
    }, {
        "SDTMVAR": "BRTHDTC",
        "SDTMDOM": "DM"
    }, {
        "SDTMVAR": "CODTC",
        "SDTMDOM": "CO"
    }, {
        "SDTMVAR": "CODY",
        "SDTMDOM": "CO"
    }, {
        "SDTMVAR": "COEVAL",
        "SDTMDOM": "CO"
    }, {
        "SDTMVAR": "COEVALID",
        "SDTMDOM": "CO"
    }, {
        "SDTMVAR": "COREF",
        "SDTMDOM": "CO"
    }, {
        "SDTMVAR": "COSEQ",
        "SDTMDOM": "CO"
    }, {
        "SDTMVAR": "COUNTRY",
        "SDTMDOM": "DM"
    }, {
        "SDTMVAR": "COVAL",
        "SDTMDOM": "CO"
    }, {
        "SDTMVAR": "DIPARM",
        "SDTMDOM": "DI"
    }, {
        "SDTMVAR": "DIPARMCD",
        "SDTMDOM": "DI"
    }, {
        "SDTMVAR": "DISEQ",
        "SDTMDOM": "DI"
    }, {
        "SDTMVAR": "DIVAL",
        "SDTMDOM": "DI"
    }, {
        "SDTMVAR": "DMDTC",
        "SDTMDOM": "DM"
    }, {
        "SDTMVAR": "DMDY",
        "SDTMDOM": "DM"
    }, {
        "SDTMVAR": "DOMAIN",
        "SDTMDOM": "DM;CO;SE;SV;SM;SJ;TE;TA;TV;TX;TT;TP;TI;TS;TD;TM;DR;DI;OI"
    }, {
        "SDTMVAR": "DTHDTC",
        "SDTMDOM": "DM"
    }, {
        "SDTMVAR": "DTHFL",
        "SDTMDOM": "DM"
    }, {
        "SDTMVAR": "ELEMENT",
        "SDTMDOM": "SE;TE;TA"
    }, {
        "SDTMVAR": "EPOCH",
        "SDTMDOM": "SE;TA"
    }, {
        "SDTMVAR": "ETCD",
        "SDTMDOM": "SE;TE;TA"
    }, {
        "SDTMVAR": "ETHNIC",
        "SDTMDOM": "DM"
    }, {
        "SDTMVAR": "IDVAR",
        "SDTMDOM": "CO;RELREC;SUPPQUAL"
    }, {
        "SDTMVAR": "IDVARVAL",
        "SDTMDOM": "CO;RELREC;SUPPQUAL"
    }, {
        "SDTMVAR": "IECAT",
        "SDTMDOM": "TI"
    }, {
        "SDTMVAR": "IESCAT",
        "SDTMDOM": "TI"
    }, {
        "SDTMVAR": "IETEST",
        "SDTMDOM": "TI"
    }, {
        "SDTMVAR": "IETESTCD",
        "SDTMDOM": "TI"
    }, {
        "SDTMVAR": "INVID",
        "SDTMDOM": "DM"
    }, {
        "SDTMVAR": "INVNAM",
        "SDTMDOM": "DM"
    }, {
        "SDTMVAR": "MIDS",
        "SDTMDOM": "SM"
    }, {
        "SDTMVAR": "MIDSTYPE",
        "SDTMDOM": "SM;TM"
    }, {
        "SDTMVAR": "NHOID",
        "SDTMDOM": "OI"
    }, {
        "SDTMVAR": "OIPARM",
        "SDTMDOM": "OI"
    }, {
        "SDTMVAR": "OIPARMCD",
        "SDTMDOM": "OI"
    }, {
        "SDTMVAR": "OISEQ",
        "SDTMDOM": "OI"
    }, {
        "SDTMVAR": "OIVAL",
        "SDTMDOM": "OI"
    }, {
        "SDTMVAR": "POOLID",
        "SDTMDOM": "CO;RELREC;SUPPQUAL;POOLDEF;RELSUB"
    }, {
        "SDTMVAR": "QEVAL",
        "SDTMDOM": "SUPPQUAL"
    }, {
        "SDTMVAR": "QLABEL",
        "SDTMDOM": "SUPPQUAL"
    }, {
        "SDTMVAR": "QNAM",
        "SDTMDOM": "SUPPQUAL"
    }, {
        "SDTMVAR": "QORIG",
        "SDTMDOM": "SUPPQUAL"
    }, {
        "SDTMVAR": "QVAL",
        "SDTMDOM": "SUPPQUAL"
    }, {
        "SDTMVAR": "RACE",
        "SDTMDOM": "DM"
    }, {
        "SDTMVAR": "RDEVID",
        "SDTMDOM": "APRELSUB"
    }, {
        "SDTMVAR": "RDOMAIN",
        "SDTMDOM": "CO;RELREC;SUPPQUAL"
    }, {
        "SDTMVAR": "RELID",
        "SDTMDOM": "RELREC"
    }, {
        "SDTMVAR": "RELTYPE",
        "SDTMDOM": "RELREC"
    }, {
        "SDTMVAR": "RFENDTC",
        "SDTMDOM": "DM"
    }, {
        "SDTMVAR": "RFICDTC",
        "SDTMDOM": "DM"
    }, {
        "SDTMVAR": "RFPENDTC",
        "SDTMDOM": "DM"
    }, {
        "SDTMVAR": "RFSTDTC",
        "SDTMDOM": "DM"
    }, {
        "SDTMVAR": "RFXENDTC",
        "SDTMDOM": "DM"
    }, {
        "SDTMVAR": "RFXSTDTC",
        "SDTMDOM": "DM"
    }, {
        "SDTMVAR": "RPATH",
        "SDTMDOM": "TP"
    }, {
        "SDTMVAR": "RPATHCD",
        "SDTMDOM": "DM;TP"
    }, {
        "SDTMVAR": "RPHASE",
        "SDTMDOM": "SJ;TP"
    }, {
        "SDTMVAR": "RPRFDY",
        "SDTMDOM": "TP"
    }, {
        "SDTMVAR": "RSTAGE",
        "SDTMDOM": "SJ;TT;TP"
    }, {
        "SDTMVAR": "RSTGCD",
        "SDTMDOM": "SJ;TT;TP"
    }, {
        "SDTMVAR": "RSUBJID",
        "SDTMDOM": "RELSUB;APRELSUB"
    }, {
        "SDTMVAR": "SBSTRAIN",
        "SDTMDOM": "DM"
    }, {
        "SDTMVAR": "SEENDTC",
        "SDTMDOM": "SE"
    }, {
        "SDTMVAR": "SESEQ",
        "SDTMDOM": "SE"
    }, {
        "SDTMVAR": "SESTDTC",
        "SDTMDOM": "SE"
    }, {
        "SDTMVAR": "SET",
        "SDTMDOM": "TX"
    }, {
        "SDTMVAR": "SETCD",
        "SDTMDOM": "DM;TX"
    }, {
        "SDTMVAR": "SEUPDES",
        "SDTMDOM": "SE"
    }, {
        "SDTMVAR": "SEX",
        "SDTMDOM": "DM"
    }, {
        "SDTMVAR": "SITEID",
        "SDTMDOM": "DM"
    }, {
        "SDTMVAR": "SJENDTC",
        "SDTMDOM": "SJ"
    }, {
        "SDTMVAR": "SJSEQ",
        "SDTMDOM": "SJ"
    }, {
        "SDTMVAR": "SJSTDTC",
        "SDTMDOM": "SJ"
    }, {
        "SDTMVAR": "SJUPDES",
        "SDTMDOM": "SJ"
    }, {
        "SDTMVAR": "SMENDTC",
        "SDTMDOM": "SM"
    }, {
        "SDTMVAR": "SMENDY",
        "SDTMDOM": "SM"
    }, {
        "SDTMVAR": "SMSEQ",
        "SDTMDOM": "SM"
    }, {
        "SDTMVAR": "SMSTDTC",
        "SDTMDOM": "SM"
    }, {
        "SDTMVAR": "SMSTDY",
        "SDTMDOM": "SM"
    }, {
        "SDTMVAR": "SPDEVID",
        "SDTMDOM": "DR;DI"
    }, {
        "SDTMVAR": "SPECIES",
        "SDTMDOM": "DM"
    }, {
        "SDTMVAR": "SREL",
        "SDTMDOM": "RELSUB;APRELSUB"
    }, {
        "SDTMVAR": "STRAIN",
        "SDTMDOM": "DM"
    }, {
        "SDTMVAR": "STUDYID",
        "SDTMDOM": "DM;CO;SE;SV;SM;SJ;TE;TA;TV;TX;TT;TP;TI;TS;TD;TM;RELREC;SUPPQUAL;POOLDEF;RELSUB;DR;DI;OI;APRELSUB"
    }, {
        "SDTMVAR": "SUBJID",
        "SDTMDOM": "DM"
    }, {
        "SDTMVAR": "SVENDTC",
        "SDTMDOM": "SV"
    }, {
        "SDTMVAR": "SVENDY",
        "SDTMDOM": "SV"
    }, {
        "SDTMVAR": "SVSTDTC",
        "SDTMDOM": "SV"
    }, {
        "SDTMVAR": "SVSTDY",
        "SDTMDOM": "SV"
    }, {
        "SDTMVAR": "SVUPDES",
        "SDTMDOM": "SV"
    }, {
        "SDTMVAR": "TABRANCH",
        "SDTMDOM": "TA"
    }, {
        "SDTMVAR": "TAETORD",
        "SDTMDOM": "SE;TA"
    }, {
        "SDTMVAR": "TATRANS",
        "SDTMDOM": "TA"
    }, {
        "SDTMVAR": "TDANCVAR",
        "SDTMDOM": "TD"
    }, {
        "SDTMVAR": "TDMAXPAI",
        "SDTMDOM": "TD"
    }, {
        "SDTMVAR": "TDMINPAI",
        "SDTMDOM": "TD"
    }, {
        "SDTMVAR": "TDNUMRPT",
        "SDTMDOM": "TD"
    }, {
        "SDTMVAR": "TDORDER",
        "SDTMDOM": "TD"
    }, {
        "SDTMVAR": "TDSTOFF",
        "SDTMDOM": "TD"
    }, {
        "SDTMVAR": "TDTGTPAI",
        "SDTMDOM": "TD"
    }, {
        "SDTMVAR": "TEDUR",
        "SDTMDOM": "TE"
    }, {
        "SDTMVAR": "TEENRL",
        "SDTMDOM": "TE"
    }, {
        "SDTMVAR": "TESTRL",
        "SDTMDOM": "TE"
    }, {
        "SDTMVAR": "TIRL",
        "SDTMDOM": "TI"
    }, {
        "SDTMVAR": "TIVERS",
        "SDTMDOM": "TI"
    }, {
        "SDTMVAR": "TMDEF",
        "SDTMDOM": "TM"
    }, {
        "SDTMVAR": "TMRPT",
        "SDTMDOM": "TM"
    }, {
        "SDTMVAR": "TPBRANCH",
        "SDTMDOM": "TP"
    }, {
        "SDTMVAR": "TPSTGORD",
        "SDTMDOM": "TP"
    }, {
        "SDTMVAR": "TSGRPID",
        "SDTMDOM": "TS"
    }, {
        "SDTMVAR": "TSPARM",
        "SDTMDOM": "TS"
    }, {
        "SDTMVAR": "TSPARMCD",
        "SDTMDOM": "TS"
    }, {
        "SDTMVAR": "TSSEQ",
        "SDTMDOM": "TS"
    }, {
        "SDTMVAR": "TSVAL",
        "SDTMDOM": "TS"
    }, {
        "SDTMVAR": "TSVALCD",
        "SDTMDOM": "TS"
    }, {
        "SDTMVAR": "TSVALNF",
        "SDTMDOM": "TS"
    }, {
        "SDTMVAR": "TSVCDREF",
        "SDTMDOM": "TS"
    }, {
        "SDTMVAR": "TSVCDVER",
        "SDTMDOM": "TS"
    }, {
        "SDTMVAR": "TTDUR",
        "SDTMDOM": "TT"
    }, {
        "SDTMVAR": "TTENRL",
        "SDTMDOM": "TT"
    }, {
        "SDTMVAR": "TTSTRL",
        "SDTMDOM": "TT"
    }, {
        "SDTMVAR": "TVENRL",
        "SDTMDOM": "TV"
    }, {
        "SDTMVAR": "TVSTRL",
        "SDTMDOM": "TV"
    }, {
        "SDTMVAR": "TXPARM",
        "SDTMDOM": "TX"
    }, {
        "SDTMVAR": "TXPARMCD",
        "SDTMDOM": "TX"
    }, {
        "SDTMVAR": "TXSEQ",
        "SDTMDOM": "TX"
    }, {
        "SDTMVAR": "TXVAL",
        "SDTMDOM": "TX"
    }, {
        "SDTMVAR": "USUBJID",
        "SDTMDOM": "DM;CO;SE;SV;SM;SJ;RELREC;SUPPQUAL;POOLDEF;RELSUB;DR"
    }, {
        "SDTMVAR": "VISIT",
        "SDTMDOM": "SV;TV"
    }, {
        "SDTMVAR": "VISITDY",
        "SDTMDOM": "SV;TV"
    }, {
        "SDTMVAR": "VISITNUM",
        "SDTMDOM": "SV;TV"
    }
]
