[{"SDTMVAR":"ACTARM","SDTMDOM":"DM"},{"SDTMVAR":"ACTARMCD","SDTMDOM":"DM"},{"SDTMVAR":"AEACCMED","SDTMDOM":"SUPPAE"},{"SDTMVAR":"AEACHCP","SDTMDOM":"SUPPAE"},{"SDTMVAR":"AEACHOS","SDTMDOM":"SUPPAE"},{"SDTMVAR":"AEACN","SDTMDOM":"AE;APAE"},{"SDTMVAR":"AEACN1","SDTMDOM":"SUPPAE;SQAPAE"},{"SDTMVAR":"AEACN2","SDTMDOM":"SUPPAE;SQAPAE"},{"SDTMVAR":"AEACN3","SDTMDOM":"SUPPAE;SQAPAE"},{"SDTMVAR":"AEACN4","SDTMDOM":"SUPPAE;SQAPAE"},{"SDTMVAR":"AEACNC","SDTMDOM":"SUPPAE"},{"SDTMVAR":"AEACNC1","SDTMDOM":"SUPPAE"},{"SDTMVAR":"AEACNC2","SDTMDOM":"SUPPAE"},{"SDTMVAR":"AEACNC3","SDTMDOM":"SUPPAE"},{"SDTMVAR":"AEACNC4","SDTMDOM":"SUPPAE"},{"SDTMVAR":"AEACNDT","SDTMDOM":"SUPPAE"},{"SDTMVAR":"AEACNNO","SDTMDOM":"SUPPAE"},{"SDTMVAR":"AEACNOSP","SDTMDOM":"SUPPAE"},{"SDTMVAR":"AEACNOT","SDTMDOM":"SUPPAE"},{"SDTMVAR":"AEACVACD","SDTMDOM":"SUPPAE"},{"SDTMVAR":"AEBDSYCD","SDTMDOM":"AE;APAE"},{"SDTMVAR":"AEBODSYS","SDTMDOM":"AE;APAE"},{"SDTMVAR":"AECAT","SDTMDOM":"AE;APAE"},{"SDTMVAR":"AECONTRT","SDTMDOM":"AE"},{"SDTMVAR":"AECYCNAM","SDTMDOM":"SUPPAE"},{"SDTMVAR":"AECYCVID","SDTMDOM":"SUPPAE"},{"SDTMVAR":"AEDECOD","SDTMDOM":"AE;APAE"},{"SDTMVAR":"AEDICTV","SDTMDOM":"SUPPAE;SQAPAE"},{"SDTMVAR":"AEDIR","SDTMDOM":"AE"},{"SDTMVAR":"AEDIS","SDTMDOM":"SUPPAE"},{"SDTMVAR":"AEDLT","SDTMDOM":"SUPPAE"},{"SDTMVAR":"AEDTHDTC","SDTMDOM":"SUPPAE"},{"SDTMVAR":"AEELPTIM","SDTMDOM":"SUPPAE"},{"SDTMVAR":"AEENDTC","SDTMDOM":"AE;APAE"},{"SDTMVAR":"AEENDY","SDTMDOM":"AE;APAE"},{"SDTMVAR":"AEENRF","SDTMDOM":"AE"},{"SDTMVAR":"AEENRTPT","SDTMDOM":"AE"},{"SDTMVAR":"AEENTPT","SDTMDOM":"AE"},{"SDTMVAR":"AEHLGT","SDTMDOM":"AE;APAE"},{"SDTMVAR":"AEHLGTCD","SDTMDOM":"AE;APAE"},{"SDTMVAR":"AEHLT","SDTMDOM":"AE;APAE"},{"SDTMVAR":"AEHLTCD","SDTMDOM":"AE;APAE"},{"SDTMVAR":"AEIAR","SDTMDOM":"SUPPAE"},{"SDTMVAR":"AEIMM","SDTMDOM":"SUPPAE"},{"SDTMVAR":"AEISPID","SDTMDOM":"SUPPAE;SQAPAE"},{"SDTMVAR":"AELAT","SDTMDOM":"AE"},{"SDTMVAR":"AELLT","SDTMDOM":"AE;APAE"},{"SDTMVAR":"AELLTCD","SDTMDOM":"AE;APAE"},{"SDTMVAR":"AELNKID","SDTMDOM":"AE"},{"SDTMVAR":"AELOC","SDTMDOM":"AE"},{"SDTMVAR":"AEMAAE","SDTMDOM":"SUPPAE"},{"SDTMVAR":"AEMEOI","SDTMDOM":"SUPPAE"},{"SDTMVAR":"AEMS","SDTMDOM":"SUPPAE"},{"SDTMVAR":"AEMSM","SDTMDOM":"SUPPAE"},{"SDTMVAR":"AEMSNM","SDTMDOM":"SUPPAE"},{"SDTMVAR":"AEMSU","SDTMDOM":"SUPPAE"},{"SDTMVAR":"AEOUT","SDTMDOM":"AE"},{"SDTMVAR":"AEOUTPRG","SDTMDOM":"SUPPAE;SQAPAE"},{"SDTMVAR":"AEOVIMP","SDTMDOM":"SUPPAE"},{"SDTMVAR":"AEOVIMP2","SDTMDOM":"SUPPAE"},{"SDTMVAR":"AEOVIMP3","SDTMDOM":"SUPPAE"},{"SDTMVAR":"AEOVIMP4","SDTMDOM":"SUPPAE"},{"SDTMVAR":"AEOVNCM","SDTMDOM":"SUPPAE"},{"SDTMVAR":"AEOVNCMS","SDTMDOM":"SUPPAE"},{"SDTMVAR":"AEOVNIMP","SDTMDOM":"SUPPAE"},{"SDTMVAR":"AEOVOTCM","SDTMDOM":"SUPPAE"},{"SDTMVAR":"AEOVSYMP","SDTMDOM":"SUPPAE"},{"SDTMVAR":"AEPRAEYN","SDTMDOM":"SUPPAE;SQAPAE"},{"SDTMVAR":"AEPTCD","SDTMDOM":"AE;APAE"},{"SDTMVAR":"AEREFID","SDTMDOM":"AE;APAE"},{"SDTMVAR":"AEREL","SDTMDOM":"AE;APAE"},{"SDTMVAR":"AEREL1","SDTMDOM":"SUPPAE;SQAPAE"},{"SDTMVAR":"AEREL2","SDTMDOM":"SUPPAE;SQAPAE"},{"SDTMVAR":"AEREL3","SDTMDOM":"SUPPAE;SQAPAE"},{"SDTMVAR":"AEREL4","SDTMDOM":"SUPPAE;SQAPAE"},{"SDTMVAR":"AERELNS2","SDTMDOM":"SUPPAE;SQAPAE"},{"SDTMVAR":"AERELNS3","SDTMDOM":"SUPPAE;SQAPAE"},{"SDTMVAR":"AERELNS4","SDTMDOM":"SUPPAE;SQAPAE"},{"SDTMVAR":"AERELNST","SDTMDOM":"AE;APAE"},{"SDTMVAR":"AERELPR","SDTMDOM":"SUPPAE"},{"SDTMVAR":"AESCAT","SDTMDOM":"AE"},{"SDTMVAR":"AESCONG","SDTMDOM":"AE"},{"SDTMVAR":"AESDISAB","SDTMDOM":"AE"},{"SDTMVAR":"AESDTH","SDTMDOM":"AE"},{"SDTMVAR":"AESEQ","SDTMDOM":"AE;APAE"},{"SDTMVAR":"AESEQUCM","SDTMDOM":"SUPPAE"},{"SDTMVAR":"AESER","SDTMDOM":"AE"},{"SDTMVAR":"AESERDTC","SDTMDOM":"SUPPAE"},{"SDTMVAR":"AESEV","SDTMDOM":"AE"},{"SDTMVAR":"AESEVMD","SDTMDOM":"SUPPAE"},{"SDTMVAR":"AESHOSP","SDTMDOM":"AE"},{"SDTMVAR":"AESIAR","SDTMDOM":"SUPPAE"},{"SDTMVAR":"AESIDEN","SDTMDOM":"SUPPAE"},{"SDTMVAR":"AESIIN","SDTMDOM":"SUPPAE"},{"SDTMVAR":"AESINV","SDTMDOM":"SUPPAE"},{"SDTMVAR":"AESLIFE","SDTMDOM":"AE"},{"SDTMVAR":"AESMIE","SDTMDOM":"AE"},{"SDTMVAR":"AESOC","SDTMDOM":"AE;APAE"},{"SDTMVAR":"AESOCCD","SDTMDOM":"AE;APAE"},{"SDTMVAR":"AESTABLE","SDTMDOM":"SUPPAE"},{"SDTMVAR":"AESTDTC","SDTMDOM":"AE;APAE"},{"SDTMVAR":"AESTDY","SDTMDOM":"AE;APAE"},{"SDTMVAR":"AETERM","SDTMDOM":"AE;APAE"},{"SDTMVAR":"AETOXGR","SDTMDOM":"AE"},{"SDTMVAR":"AETOXGRV","SDTMDOM":"SUPPAE"},{"SDTMVAR":"AETRT","SDTMDOM":"SUPPAE"},{"SDTMVAR":"AETRTEM","SDTMDOM":"SUPPAE"},{"SDTMVAR":"AGCAT","SDTMDOM":"AG"},{"SDTMVAR":"AGE","SDTMDOM":"DM"},{"SDTMVAR":"AGELTM","SDTMDOM":"AG"},{"SDTMVAR":"AGEU","SDTMDOM":"DM"},{"SDTMVAR":"AGOCCUR","SDTMDOM":"AG"},{"SDTMVAR":"AGPRESP","SDTMDOM":"AG"},{"SDTMVAR":"AGROUTE","SDTMDOM":"AG"},{"SDTMVAR":"AGSCAT","SDTMDOM":"AG"},{"SDTMVAR":"AGSEQ","SDTMDOM":"AG"},{"SDTMVAR":"AGSPID","SDTMDOM":"AG"},{"SDTMVAR":"AGSTDTC","SDTMDOM":"AG"},{"SDTMVAR":"AGSTDY","SDTMDOM":"AG"},{"SDTMVAR":"AGTPT","SDTMDOM":"AG"},{"SDTMVAR":"AGTPTNUM","SDTMDOM":"AG"},{"SDTMVAR":"AGTPTREF","SDTMDOM":"AG"},{"SDTMVAR":"AGTRT","SDTMDOM":"AG"},{"SDTMVAR":"APERIOD","SDTMDOM":"SUPPSV"},{"SDTMVAR":"APERIODC","SDTMDOM":"SUPPSV"},{"SDTMVAR":"APID","SDTMDOM":"APAE;APMH"},{"SDTMVAR":"ARM","SDTMDOM":"DM;TA;TV"},{"SDTMVAR":"ARMCD","SDTMDOM":"DM;TA;TV"},{"SDTMVAR":"BRTHDTC","SDTMDOM":"DM"},{"SDTMVAR":"CCBLFL","SDTMDOM":"CC;CCLN"},{"SDTMVAR":"CCCAT","SDTMDOM":"CC;CCLN"},{"SDTMVAR":"CCDRVFL","SDTMDOM":"CC;CCLN"},{"SDTMVAR":"CCDTC","SDTMDOM":"CC;CCLN"},{"SDTMVAR":"CCDY","SDTMDOM":"CC;CCLN"},{"SDTMVAR":"CCELTM","SDTMDOM":"CC;CCLN"},{"SDTMVAR":"CCEVAL","SDTMDOM":"CC;CCLN"},{"SDTMVAR":"CCEVALGL","SDTMDOM":"SUPPCC"},{"SDTMVAR":"CCEVALID","SDTMDOM":"CC;CCLN"},{"SDTMVAR":"CCEVINTX","SDTMDOM":"CC;CCLN"},{"SDTMVAR":"CCEVLINT","SDTMDOM":"CC;CCLN"},{"SDTMVAR":"CCGRPID","SDTMDOM":"CC;CCLN"},{"SDTMVAR":"CCLNKGRP","SDTMDOM":"CC;CCLN"},{"SDTMVAR":"CCLNKID","SDTMDOM":"CC;CCLN"},{"SDTMVAR":"CCORRES","SDTMDOM":"CC;CCLN"},{"SDTMVAR":"CCORRESU","SDTMDOM":"CC;CCLN"},{"SDTMVAR":"CCREASND","SDTMDOM":"CC;CCLN"},{"SDTMVAR":"CCRESCAT","SDTMDOM":"CC;CCLN"},{"SDTMVAR":"CCRFTDTC","SDTMDOM":"CC;CCLN"},{"SDTMVAR":"CCSCAT","SDTMDOM":"CC;CCLN"},{"SDTMVAR":"CCSEQ","SDTMDOM":"CC;CCLN"},{"SDTMVAR":"CCSPID","SDTMDOM":"CC;CCLN"},{"SDTMVAR":"CCSTAT","SDTMDOM":"CC;CCLN"},{"SDTMVAR":"CCSTRESC","SDTMDOM":"CC;CCLN"},{"SDTMVAR":"CCSTRESN","SDTMDOM":"CC;CCLN"},{"SDTMVAR":"CCSTRESU","SDTMDOM":"CC;CCLN"},{"SDTMVAR":"CCTEST","SDTMDOM":"CC;CCLN"},{"SDTMVAR":"CCTESTCD","SDTMDOM":"CC;CCLN"},{"SDTMVAR":"CCTPT","SDTMDOM":"CC;CCLN"},{"SDTMVAR":"CCTPTNUM","SDTMDOM":"CC;CCLN"},{"SDTMVAR":"CCTPTREF","SDTMDOM":"CC;CCLN"},{"SDTMVAR":"CEACCYN","SDTMDOM":"SUPPCE"},{"SDTMVAR":"CEBDSYCD","SDTMDOM":"CE"},{"SDTMVAR":"CEBODSYS","SDTMDOM":"CE"},{"SDTMVAR":"CECAT","SDTMDOM":"CE"},{"SDTMVAR":"CECM","SDTMDOM":"SUPPCE"},{"SDTMVAR":"CECVOUT","SDTMDOM":"SUPPCE"},{"SDTMVAR":"CEDECOD","SDTMDOM":"CE"},{"SDTMVAR":"CEDICTV","SDTMDOM":"SUPPCE"},{"SDTMVAR":"CEDIR","SDTMDOM":"CE"},{"SDTMVAR":"CEENDTC","SDTMDOM":"CE"},{"SDTMVAR":"CEENDY","SDTMDOM":"CE"},{"SDTMVAR":"CEEVTMNG","SDTMDOM":"SUPPCE"},{"SDTMVAR":"CEHLGT","SDTMDOM":"CE"},{"SDTMVAR":"CEHLGTCD","SDTMDOM":"CE"},{"SDTMVAR":"CEHLT","SDTMDOM":"CE"},{"SDTMVAR":"CEHLTCD","SDTMDOM":"CE"},{"SDTMVAR":"CEHPSER","SDTMDOM":"SUPPCE"},{"SDTMVAR":"CEHPTCON","SDTMDOM":"SUPPCE"},{"SDTMVAR":"CEHPTREP","SDTMDOM":"SUPPCE"},{"SDTMVAR":"CELAT","SDTMDOM":"CE"},{"SDTMVAR":"CELDUR","SDTMDOM":"SUPPCE"},{"SDTMVAR":"CELLT","SDTMDOM":"CE"},{"SDTMVAR":"CELLTCD","SDTMDOM":"CE"},{"SDTMVAR":"CELNKID","SDTMDOM":"CE"},{"SDTMVAR":"CELOC","SDTMDOM":"CE"},{"SDTMVAR":"CEOCCUR","SDTMDOM":"CE"},{"SDTMVAR":"CEOCCUR1","SDTMDOM":"SUPPCE"},{"SDTMVAR":"CEOCCUR2","SDTMDOM":"SUPPCE"},{"SDTMVAR":"CEPRESP","SDTMDOM":"CE"},{"SDTMVAR":"CEPRTRT","SDTMDOM":"SUPPCE"},{"SDTMVAR":"CEPTCD","SDTMDOM":"CE"},{"SDTMVAR":"CEREFID","SDTMDOM":"CE"},{"SDTMVAR":"CEREFID1","SDTMDOM":"SUPPCE"},{"SDTMVAR":"CESCAT","SDTMDOM":"CE"},{"SDTMVAR":"CESEQ","SDTMDOM":"CE"},{"SDTMVAR":"CESOC","SDTMDOM":"CE"},{"SDTMVAR":"CESOCCD","SDTMDOM":"CE"},{"SDTMVAR":"CESPID","SDTMDOM":"CE"},{"SDTMVAR":"CESTAT","SDTMDOM":"CE"},{"SDTMVAR":"CESTDTC","SDTMDOM":"CE"},{"SDTMVAR":"CESTDY","SDTMDOM":"CE"},{"SDTMVAR":"CESTRTPT","SDTMDOM":"CE"},{"SDTMVAR":"CESTTPT","SDTMDOM":"CE"},{"SDTMVAR":"CETERM","SDTMDOM":"CE"},{"SDTMVAR":"CEWHEOCC","SDTMDOM":"SUPPCE"},{"SDTMVAR":"CICAT","SDTMDOM":"CI"},{"SDTMVAR":"CIDTC","SDTMDOM":"CI"},{"SDTMVAR":"CIDY","SDTMDOM":"CI"},{"SDTMVAR":"CISEQ","SDTMDOM":"CI"},{"SDTMVAR":"CISPID","SDTMDOM":"CI"},{"SDTMVAR":"CITERM","SDTMDOM":"CI"},{"SDTMVAR":"CMACCYN","SDTMDOM":"SUPPCM"},{"SDTMVAR":"CMAENO","SDTMDOM":"SUPPCM"},{"SDTMVAR":"CMBR","SDTMDOM":"SUPPCM"},{"SDTMVAR":"CMCAT","SDTMDOM":"CM"},{"SDTMVAR":"CMCLSIG","SDTMDOM":"SUPPCM"},{"SDTMVAR":"CMCM","SDTMDOM":"SUPPCM"},{"SDTMVAR":"CMDECOD","SDTMDOM":"CM"},{"SDTMVAR":"CMDECOD1","SDTMDOM":"SUPPCM"},{"SDTMVAR":"CMDECOD2","SDTMDOM":"SUPPCM"},{"SDTMVAR":"CMDECOD3","SDTMDOM":"SUPPCM"},{"SDTMVAR":"CMDECOD4","SDTMDOM":"SUPPCM"},{"SDTMVAR":"CMDECOD5","SDTMDOM":"SUPPCM"},{"SDTMVAR":"CMDECOD6","SDTMDOM":"SUPPCM"},{"SDTMVAR":"CMDECOD7","SDTMDOM":"SUPPCM"},{"SDTMVAR":"CMDICTV","SDTMDOM":"SUPPCM"},{"SDTMVAR":"CMDOSE","SDTMDOM":"CM"},{"SDTMVAR":"CMDOSFRQ","SDTMDOM":"CM"},{"SDTMVAR":"CMDOSTOT","SDTMDOM":"CM"},{"SDTMVAR":"CMDOSTXT","SDTMDOM":"CM"},{"SDTMVAR":"CMDOSU","SDTMDOM":"CM"},{"SDTMVAR":"CMDSROTH","SDTMDOM":"SUPPCM"},{"SDTMVAR":"CMENDTC","SDTMDOM":"CM"},{"SDTMVAR":"CMENDY","SDTMDOM":"CM"},{"SDTMVAR":"CMENRF","SDTMDOM":"CM"},{"SDTMVAR":"CMENRTPT","SDTMDOM":"CM"},{"SDTMVAR":"CMENTPT","SDTMDOM":"CM"},{"SDTMVAR":"CMFRQOTH","SDTMDOM":"SUPPCM"},{"SDTMVAR":"CMGRPID","SDTMDOM":"CM"},{"SDTMVAR":"CMINDC","SDTMDOM":"CM"},{"SDTMVAR":"CMINGRD","SDTMDOM":"SUPPCM"},{"SDTMVAR":"CMLNKID","SDTMDOM":"CM"},{"SDTMVAR":"CMMHNO","SDTMDOM":"SUPPCM"},{"SDTMVAR":"CMOCCUR","SDTMDOM":"CM"},{"SDTMVAR":"CMOCCUR1","SDTMDOM":"SUPPCM"},{"SDTMVAR":"CMOCCUR2","SDTMDOM":"SUPPCM"},{"SDTMVAR":"CMOCCUR3","SDTMDOM":"SUPPCM"},{"SDTMVAR":"CMPREP","SDTMDOM":"SUPPCM"},{"SDTMVAR":"CMPRESP","SDTMDOM":"CM"},{"SDTMVAR":"CMPROHFL","SDTMDOM":"SUPPCM"},{"SDTMVAR":"CMPROPFL","SDTMDOM":"SUPPCM"},{"SDTMVAR":"CMREACSP","SDTMDOM":"SUPPCM"},{"SDTMVAR":"CMREACYN","SDTMDOM":"SUPPCM"},{"SDTMVAR":"CMREASND","SDTMDOM":"CM"},{"SDTMVAR":"CMRECNO","SDTMDOM":"SUPPCM"},{"SDTMVAR":"CMRESTRT","SDTMDOM":"SUPPCM"},{"SDTMVAR":"CMROTOTH","SDTMDOM":"SUPPCM"},{"SDTMVAR":"CMROUTE","SDTMDOM":"CM"},{"SDTMVAR":"CMROUTEC","SDTMDOM":"SUPPCM"},{"SDTMVAR":"CMRPDTC","SDTMDOM":"SUPPCM"},{"SDTMVAR":"CMRPDY","SDTMDOM":"SUPPCM"},{"SDTMVAR":"CMRSDISC","SDTMDOM":"SUPPCM"},{"SDTMVAR":"CMSCAT","SDTMDOM":"CM"},{"SDTMVAR":"CMSEQ","SDTMDOM":"CM"},{"SDTMVAR":"CMSEQ1","SDTMDOM":"SUPPCM"},{"SDTMVAR":"CMSEQ2","SDTMDOM":"SUPPCM"},{"SDTMVAR":"CMSPID","SDTMDOM":"CM"},{"SDTMVAR":"CMSTAT","SDTMDOM":"CM"},{"SDTMVAR":"CMSTDTC","SDTMDOM":"CM"},{"SDTMVAR":"CMSTDY","SDTMDOM":"CM"},{"SDTMVAR":"CMSTRF","SDTMDOM":"CM"},{"SDTMVAR":"CMSTRTPT","SDTMDOM":"CM"},{"SDTMVAR":"CMSTTPT","SDTMDOM":"CM"},{"SDTMVAR":"CMTPT","SDTMDOM":"CM"},{"SDTMVAR":"CMTRT","SDTMDOM":"CM"},{"SDTMVAR":"CMVACTYP","SDTMDOM":"SUPPCM"},{"SDTMVAR":"COHORT","SDTMDOM":"SUPPDM"},{"SDTMVAR":"COMPLT","SDTMDOM":"SUPPDM"},{"SDTMVAR":"COREF","SDTMDOM":"CO"},{"SDTMVAR":"COSEQ","SDTMDOM":"CO"},{"SDTMVAR":"COTPTREF","SDTMDOM":"CO"},{"SDTMVAR":"COUNTRY","SDTMDOM":"DM"},{"SDTMVAR":"COVAL","SDTMDOM":"CO"},{"SDTMVAR":"CVBLFL","SDTMDOM":"CV"},{"SDTMVAR":"CVCAT","SDTMDOM":"CV"},{"SDTMVAR":"CVDIR","SDTMDOM":"CV"},{"SDTMVAR":"CVDRVFL","SDTMDOM":"CV"},{"SDTMVAR":"CVDTC","SDTMDOM":"CV"},{"SDTMVAR":"CVDY","SDTMDOM":"CV"},{"SDTMVAR":"CVELTM","SDTMDOM":"CV"},{"SDTMVAR":"CVEVAL","SDTMDOM":"CV"},{"SDTMVAR":"CVGRPID","SDTMDOM":"CV"},{"SDTMVAR":"CVLAT","SDTMDOM":"CV"},{"SDTMVAR":"CVLOC","SDTMDOM":"CV"},{"SDTMVAR":"CVMETHOD","SDTMDOM":"CV"},{"SDTMVAR":"CVORRES","SDTMDOM":"CV"},{"SDTMVAR":"CVORRESU","SDTMDOM":"CV"},{"SDTMVAR":"CVPOS","SDTMDOM":"CV"},{"SDTMVAR":"CVREASND","SDTMDOM":"CV"},{"SDTMVAR":"CVREFID","SDTMDOM":"CV"},{"SDTMVAR":"CVRFTDTC","SDTMDOM":"CV"},{"SDTMVAR":"CVSCAT","SDTMDOM":"CV"},{"SDTMVAR":"CVSEQ","SDTMDOM":"CV"},{"SDTMVAR":"CVSPID","SDTMDOM":"CV"},{"SDTMVAR":"CVSTAT","SDTMDOM":"CV"},{"SDTMVAR":"CVSTRESC","SDTMDOM":"CV"},{"SDTMVAR":"CVSTRESN","SDTMDOM":"CV"},{"SDTMVAR":"CVSTRESU","SDTMDOM":"CV"},{"SDTMVAR":"CVTEST","SDTMDOM":"CV"},{"SDTMVAR":"CVTESTCD","SDTMDOM":"CV"},{"SDTMVAR":"CVTPT","SDTMDOM":"CV"},{"SDTMVAR":"CVTPTNUM","SDTMDOM":"CV"},{"SDTMVAR":"CVTPTREF","SDTMDOM":"CV"},{"SDTMVAR":"DACAT","SDTMDOM":"DA"},{"SDTMVAR":"DADTC","SDTMDOM":"DA"},{"SDTMVAR":"DADY","SDTMDOM":"DA"},{"SDTMVAR":"DAORRES","SDTMDOM":"DA"},{"SDTMVAR":"DAORRESU","SDTMDOM":"DA"},{"SDTMVAR":"DASCAT","SDTMDOM":"DA"},{"SDTMVAR":"DASEQ","SDTMDOM":"DA"},{"SDTMVAR":"DASTRESC","SDTMDOM":"DA"},{"SDTMVAR":"DASTRESN","SDTMDOM":"DA"},{"SDTMVAR":"DASTRESU","SDTMDOM":"DA"},{"SDTMVAR":"DATABTN","SDTMDOM":"SUPPDA"},{"SDTMVAR":"DATEST","SDTMDOM":"DA"},{"SDTMVAR":"DATESTCD","SDTMDOM":"DA"},{"SDTMVAR":"DDDTC","SDTMDOM":"DD"},{"SDTMVAR":"DDDY","SDTMDOM":"DD"},{"SDTMVAR":"DDORRES","SDTMDOM":"DD"},{"SDTMVAR":"DDSEQ","SDTMDOM":"DD"},{"SDTMVAR":"DDSTRESC","SDTMDOM":"DD"},{"SDTMVAR":"DDTEST","SDTMDOM":"DD"},{"SDTMVAR":"DDTESTCD","SDTMDOM":"DD"},{"SDTMVAR":"DEACNDEV","SDTMDOM":"DE"},{"SDTMVAR":"DEAENO","SDTMDOM":"SUPPDE"},{"SDTMVAR":"DECAT","SDTMDOM":"DE"},{"SDTMVAR":"DEDECOD","SDTMDOM":"DE"},{"SDTMVAR":"DEDTC","SDTMDOM":"DE"},{"SDTMVAR":"DEDY","SDTMDOM":"DE"},{"SDTMVAR":"DEENDTC","SDTMDOM":"DE"},{"SDTMVAR":"DEENDY","SDTMDOM":"DE"},{"SDTMVAR":"DEMODIFY","SDTMDOM":"DE"},{"SDTMVAR":"DEOCCUR","SDTMDOM":"DE"},{"SDTMVAR":"DEPRESP","SDTMDOM":"DE"},{"SDTMVAR":"DEREASND","SDTMDOM":"DE"},{"SDTMVAR":"DEREASOC","SDTMDOM":"SUPPDE"},{"SDTMVAR":"DESCAT","SDTMDOM":"DE"},{"SDTMVAR":"DESEQ","SDTMDOM":"DE"},{"SDTMVAR":"DESEV","SDTMDOM":"DE"},{"SDTMVAR":"DESPID","SDTMDOM":"DE"},{"SDTMVAR":"DESTAT","SDTMDOM":"DE"},{"SDTMVAR":"DESTDTC","SDTMDOM":"DE"},{"SDTMVAR":"DESTDY","SDTMDOM":"DE"},{"SDTMVAR":"DETERM","SDTMDOM":"DE"},{"SDTMVAR":"DOMAIN","SDTMDOM":"AE;AG;APAE;APMH;CC;CCLN;CE;CI;CM;CO;CV;DA;DD;DE;DM;DS;DV;EC;EG;EX;FA;FAAE;FACE;FAPR;FARS;FT;HO;IE;IS;LB;LBUS;MH;MI;MK;ML;MO;NV;OE;PC;PE;PF;PP;PR;QS;QSCQ;QSEG;QSKN;QSPI;QSMR;RE;RP;RS;SC;SE;SR;SS;SU;SV;TA;TD;TE;TI;TR;TS;TU;TV;VS"},{"SDTMVAR":"DSAENO","SDTMDOM":"SUPPDS"},{"SDTMVAR":"DSBKAEN2","SDTMDOM":"SUPPDS"},{"SDTMVAR":"DSBKAEN3","SDTMDOM":"SUPPDS"},{"SDTMVAR":"DSBKAEN4","SDTMDOM":"SUPPDS"},{"SDTMVAR":"DSBKAEN5","SDTMDOM":"SUPPDS"},{"SDTMVAR":"DSBKAENO","SDTMDOM":"SUPPDS"},{"SDTMVAR":"DSBKMETH","SDTMDOM":"SUPPDS"},{"SDTMVAR":"DSBKTRT","SDTMDOM":"SUPPDS"},{"SDTMVAR":"DSBKTRT2","SDTMDOM":"SUPPDS"},{"SDTMVAR":"DSBKTRT3","SDTMDOM":"SUPPDS"},{"SDTMVAR":"DSBKTRT4","SDTMDOM":"SUPPDS"},{"SDTMVAR":"DSBKTRT5","SDTMDOM":"SUPPDS"},{"SDTMVAR":"DSBKWHO","SDTMDOM":"SUPPDS"},{"SDTMVAR":"DSBKWHOO","SDTMDOM":"SUPPDS"},{"SDTMVAR":"DSCAT","SDTMDOM":"DS"},{"SDTMVAR":"DSCONT","SDTMDOM":"SUPPDS"},{"SDTMVAR":"DSDECOD","SDTMDOM":"DS"},{"SDTMVAR":"DSGROUP","SDTMDOM":"SUPPDM"},{"SDTMVAR":"DSMETHOD","SDTMDOM":"SUPPDS"},{"SDTMVAR":"DSMTHOTH","SDTMDOM":"SUPPDS"},{"SDTMVAR":"DSNEXT","SDTMDOM":"SUPPDS"},{"SDTMVAR":"DSPRSTUD","SDTMDOM":"SUPPDM"},{"SDTMVAR":"DSPRSUBJ","SDTMDOM":"SUPPDM"},{"SDTMVAR":"DSSCAT","SDTMDOM":"DS"},{"SDTMVAR":"DSSEQ","SDTMDOM":"DS"},{"SDTMVAR":"DSSTADTC","SDTMDOM":"IVRS"},{"SDTMVAR":"DSSTDTC","SDTMDOM":"DS"},{"SDTMVAR":"DSSTDY","SDTMDOM":"DS"},{"SDTMVAR":"DSTERM","SDTMDOM":"DS"},{"SDTMVAR":"DSTERM1","SDTMDOM":"SUPPDS"},{"SDTMVAR":"DSTERMCM","SDTMDOM":"SUPPDS"},{"SDTMVAR":"DTHDTC","SDTMDOM":"DM"},{"SDTMVAR":"DTHFL","SDTMDOM":"DM"},{"SDTMVAR":"DVCAT","SDTMDOM":"DV;LDV"},{"SDTMVAR":"DVCATCH","SDTMDOM":"SUPPDV;LDV"},{"SDTMVAR":"DVCATINI","SDTMDOM":"SUPPDV;LDV"},{"SDTMVAR":"DVCM","SDTMDOM":"SUPPDV;LDV"},{"SDTMVAR":"DVCM1","SDTMDOM":"SUPPDV;LDV"},{"SDTMVAR":"DVCM2","SDTMDOM":"SUPPDV;LDV"},{"SDTMVAR":"DVCM3","SDTMDOM":"SUPPDV;LDV"},{"SDTMVAR":"DVDECOD","SDTMDOM":"DV;LDV"},{"SDTMVAR":"DVENDTC","SDTMDOM":"DV;LDV"},{"SDTMVAR":"DVENDY","SDTMDOM":"DV;LDV"},{"SDTMVAR":"DVIMPACT","SDTMDOM":"SUPPDV;LDV"},{"SDTMVAR":"DVREFID","SDTMDOM":"DV;LDV"},{"SDTMVAR":"DVSEQ","SDTMDOM":"DV;LDV"},{"SDTMVAR":"DVSOURCE","SDTMDOM":"SUPPDV;LDV"},{"SDTMVAR":"DVSPID","SDTMDOM":"DV;LDV"},{"SDTMVAR":"DVSTDTC","SDTMDOM":"DV;LDV"},{"SDTMVAR":"DVSTDY","SDTMDOM":"DV;LDV"},{"SDTMVAR":"DVTERM","SDTMDOM":"DV;LDV"},{"SDTMVAR":"ECACCYN","SDTMDOM":"SUPPEC"},{"SDTMVAR":"ECADJ","SDTMDOM":"EC"},{"SDTMVAR":"ECBUT","SDTMDOM":"SUPPEC"},{"SDTMVAR":"ECBUTU","SDTMDOM":"SUPPEC"},{"SDTMVAR":"ECCAT","SDTMDOM":"EC"},{"SDTMVAR":"ECCM","SDTMDOM":"SUPPEC"},{"SDTMVAR":"ECDIR","SDTMDOM":"EC"},{"SDTMVAR":"ECDOSADJ","SDTMDOM":"SUPPEC"},{"SDTMVAR":"ECDOSE","SDTMDOM":"EC"},{"SDTMVAR":"ECDOSFRM","SDTMDOM":"EC"},{"SDTMVAR":"ECDOSFRQ","SDTMDOM":"EC"},{"SDTMVAR":"ECDOSRGM","SDTMDOM":"EC"},{"SDTMVAR":"ECDOSTXT","SDTMDOM":"EC"},{"SDTMVAR":"ECDOSU","SDTMDOM":"EC"},{"SDTMVAR":"ECELTM","SDTMDOM":"EC"},{"SDTMVAR":"ECENDAY","SDTMDOM":"SUPPEC"},{"SDTMVAR":"ECENDTC","SDTMDOM":"EC"},{"SDTMVAR":"ECENDY","SDTMDOM":"EC"},{"SDTMVAR":"ECENRF","SDTMDOM":"EC"},{"SDTMVAR":"ECENRTPT","SDTMDOM":"EC"},{"SDTMVAR":"ECENSCDY","SDTMDOM":"SUPPEC"},{"SDTMVAR":"ECENTPT","SDTMDOM":"EC"},{"SDTMVAR":"ECETPTTM","SDTMDOM":"SUPPEC"},{"SDTMVAR":"ECFLRT","SDTMDOM":"SUPPEC"},{"SDTMVAR":"ECFLRTU","SDTMDOM":"SUPPEC"},{"SDTMVAR":"ECGRPID","SDTMDOM":"EC"},{"SDTMVAR":"ECINT","SDTMDOM":"SUPPEC"},{"SDTMVAR":"ECINTDUR","SDTMDOM":"SUPPEC"},{"SDTMVAR":"ECLAT","SDTMDOM":"EC"},{"SDTMVAR":"ECLNKGRP","SDTMDOM":"EC"},{"SDTMVAR":"ECLNKID","SDTMDOM":"EC"},{"SDTMVAR":"ECLOC","SDTMDOM":"EC"},{"SDTMVAR":"ECLOCOTH","SDTMDOM":"SUPPEC"},{"SDTMVAR":"ECLOT","SDTMDOM":"EC"},{"SDTMVAR":"ECLOTLB","SDTMDOM":"SUPPEC"},{"SDTMVAR":"ECMOOD","SDTMDOM":"EC"},{"SDTMVAR":"ECOCCUR","SDTMDOM":"EC"},{"SDTMVAR":"ECPERIOD","SDTMDOM":"SUPPEC"},{"SDTMVAR":"ECPRESP","SDTMDOM":"EC"},{"SDTMVAR":"ECPSTRG","SDTMDOM":"EC"},{"SDTMVAR":"ECPSTRGU","SDTMDOM":"EC"},{"SDTMVAR":"ECREASOC","SDTMDOM":"SUPPEC"},{"SDTMVAR":"ECREFID","SDTMDOM":"EC"},{"SDTMVAR":"ECREFID2","SDTMDOM":"SUPPEC"},{"SDTMVAR":"ECREFID3","SDTMDOM":"SUPPEC"},{"SDTMVAR":"ECREFID4","SDTMDOM":"SUPPEC"},{"SDTMVAR":"ECREFID5","SDTMDOM":"SUPPEC"},{"SDTMVAR":"ECROTOTH","SDTMDOM":"SUPPEC"},{"SDTMVAR":"ECROUTE","SDTMDOM":"EC"},{"SDTMVAR":"ECSCHDY","SDTMDOM":"SUPPEC"},{"SDTMVAR":"ECSEQ","SDTMDOM":"EC"},{"SDTMVAR":"ECSPID","SDTMDOM":"EC"},{"SDTMVAR":"ECSTDAY","SDTMDOM":"SUPPEC"},{"SDTMVAR":"ECSTDTC","SDTMDOM":"EC"},{"SDTMVAR":"ECSTDY","SDTMDOM":"EC"},{"SDTMVAR":"ECTPT","SDTMDOM":"EC"},{"SDTMVAR":"ECTPTNUM","SDTMDOM":"EC"},{"SDTMVAR":"ECTPTREF","SDTMDOM":"EC"},{"SDTMVAR":"ECTPTTM","SDTMDOM":"SUPPEC"},{"SDTMVAR":"ECTRT","SDTMDOM":"EC"},{"SDTMVAR":"ECTRTCMP","SDTMDOM":"SUPPEC"},{"SDTMVAR":"ECTRTV","SDTMDOM":"SUPPEC"},{"SDTMVAR":"ECVAMT","SDTMDOM":"EC"},{"SDTMVAR":"ECVAMTU","SDTMDOM":"EC"},{"SDTMVAR":"EGAENO","SDTMDOM":"SUPPEG"},{"SDTMVAR":"EGBLFL","SDTMDOM":"EG"},{"SDTMVAR":"EGCAT","SDTMDOM":"EG"},{"SDTMVAR":"EGCLSIG","SDTMDOM":"SUPPEG"},{"SDTMVAR":"EGCODEX","SDTMDOM":"SUPPEG"},{"SDTMVAR":"EGCOMPL","SDTMDOM":"SUPPEG"},{"SDTMVAR":"EGDRVFL","SDTMDOM":"EG"},{"SDTMVAR":"EGDTC","SDTMDOM":"EG"},{"SDTMVAR":"EGDUR","SDTMDOM":"EG"},{"SDTMVAR":"EGDY","SDTMDOM":"EG"},{"SDTMVAR":"EGELTM","SDTMDOM":"EG"},{"SDTMVAR":"EGENDTC","SDTMDOM":"EG"},{"SDTMVAR":"EGENDY","SDTMDOM":"EG"},{"SDTMVAR":"EGLEAD","SDTMDOM":"EG"},{"SDTMVAR":"EGMETHOD","SDTMDOM":"EG"},{"SDTMVAR":"EGNAM","SDTMDOM":"EG"},{"SDTMVAR":"EGORRES","SDTMDOM":"EG"},{"SDTMVAR":"EGORRESU","SDTMDOM":"EG"},{"SDTMVAR":"EGPOS","SDTMDOM":"EG"},{"SDTMVAR":"EGRDMETH ","SDTMDOM":"SUPPEG"},{"SDTMVAR":"EGREAD","SDTMDOM":"SUPPEG"},{"SDTMVAR":"EGREFID","SDTMDOM":"EG"},{"SDTMVAR":"EGREPNUM","SDTMDOM":"SUPPEG"},{"SDTMVAR":"EGRFTDTC","SDTMDOM":"EG"},{"SDTMVAR":"EGSCAT","SDTMDOM":"EG"},{"SDTMVAR":"EGSEQ","SDTMDOM":"EG"},{"SDTMVAR":"EGSOUR","SDTMDOM":"SUPPEG"},{"SDTMVAR":"EGSPID","SDTMDOM":"EG"},{"SDTMVAR":"EGSTAT","SDTMDOM":"EG"},{"SDTMVAR":"EGSTRESC","SDTMDOM":"EG"},{"SDTMVAR":"EGSTRESN","SDTMDOM":"EG"},{"SDTMVAR":"EGSTRESU","SDTMDOM":"EG"},{"SDTMVAR":"EGTEST","SDTMDOM":"EG"},{"SDTMVAR":"EGTESTCD","SDTMDOM":"EG"},{"SDTMVAR":"EGTPT","SDTMDOM":"EG"},{"SDTMVAR":"EGTPTNUM","SDTMDOM":"EG"},{"SDTMVAR":"EGTPTREF","SDTMDOM":"EG"},{"SDTMVAR":"EGXFN","SDTMDOM":"EG"},{"SDTMVAR":"ELEMENT","SDTMDOM":"SE;TA;TE"},{"SDTMVAR":"EPOCH","SDTMDOM":"AE;AG;CC;CCLN;CE;CI;CM;CV;DA;DD;DE;DS;DV;EC;EG;EX;FA;FAAE;FACE;FAPR;FARS;FT;HO;IE;IS;LB;LBUS;MH;MI;MK;ML;MO;NV;OE;PC;PE;PF;PP;PR;QS;QSCQ;QSEG;QSKN;QSPI;QSMR;RE;RP;RS;SE;SR;SS;SU;SV;TA;TR;TU;VS"},{"SDTMVAR":"ETCD","SDTMDOM":"SE;TA;TE"},{"SDTMVAR":"ETHNIC","SDTMDOM":"DM"},{"SDTMVAR":"EXACCYN","SDTMDOM":"SUPPEX"},{"SDTMVAR":"EXADJ","SDTMDOM":"EX"},{"SDTMVAR":"EXBUT","SDTMDOM":"SUPPEX"},{"SDTMVAR":"EXBUTU","SDTMDOM":"SUPPEX"},{"SDTMVAR":"EXCAT","SDTMDOM":"EX"},{"SDTMVAR":"EXCM","SDTMDOM":"SUPPEX"},{"SDTMVAR":"EXDIR","SDTMDOM":"EX"},{"SDTMVAR":"EXDOSADJ","SDTMDOM":"SUPPEX"},{"SDTMVAR":"EXDOSE","SDTMDOM":"EX"},{"SDTMVAR":"EXDOSFRM","SDTMDOM":"EX"},{"SDTMVAR":"EXDOSFRQ","SDTMDOM":"EX"},{"SDTMVAR":"EXDOSRGM","SDTMDOM":"EX"},{"SDTMVAR":"EXDOSTXT","SDTMDOM":"EX"},{"SDTMVAR":"EXDOSU","SDTMDOM":"EX"},{"SDTMVAR":"EXELTM","SDTMDOM":"EX"},{"SDTMVAR":"EXENDAY","SDTMDOM":"SUPPEX"},{"SDTMVAR":"EXENDTC","SDTMDOM":"EX"},{"SDTMVAR":"EXENDY","SDTMDOM":"EX"},{"SDTMVAR":"EXENRF","SDTMDOM":"EX"},{"SDTMVAR":"EXENRTPT","SDTMDOM":"EX"},{"SDTMVAR":"EXENSCDY","SDTMDOM":"SUPPEX"},{"SDTMVAR":"EXENTPT","SDTMDOM":"EX"},{"SDTMVAR":"EXETPTTM","SDTMDOM":"SUPPEX"},{"SDTMVAR":"EXFLRT","SDTMDOM":"SUPPEX"},{"SDTMVAR":"EXFLRTU","SDTMDOM":"SUPPEX"},{"SDTMVAR":"EXGRPID","SDTMDOM":"EX"},{"SDTMVAR":"EXIMPNA","SDTMDOM":"SUPPEX"},{"SDTMVAR":"EXINT","SDTMDOM":"SUPPEX"},{"SDTMVAR":"EXINTDUR","SDTMDOM":"SUPPEX"},{"SDTMVAR":"EXLAT","SDTMDOM":"EX"},{"SDTMVAR":"EXLNKGRP","SDTMDOM":"EX"},{"SDTMVAR":"EXLNKID","SDTMDOM":"EX"},{"SDTMVAR":"EXLOC","SDTMDOM":"EX"},{"SDTMVAR":"EXLOCOTH","SDTMDOM":"SUPPEX"},{"SDTMVAR":"EXLOT","SDTMDOM":"EX"},{"SDTMVAR":"EXLOTLB","SDTMDOM":"SUPPEX"},{"SDTMVAR":"EXPERIOD","SDTMDOM":"SUPPEX"},{"SDTMVAR":"EXPOSED","SDTMDOM":"SUPPDM"},{"SDTMVAR":"EXREFID","SDTMDOM":"EX"},{"SDTMVAR":"EXREFID2","SDTMDOM":"SUPPEX"},{"SDTMVAR":"EXREFID3","SDTMDOM":"SUPPEX"},{"SDTMVAR":"EXREFID4","SDTMDOM":"SUPPEX"},{"SDTMVAR":"EXREFID5","SDTMDOM":"SUPPEX"},{"SDTMVAR":"EXROTOTH","SDTMDOM":"SUPPEX"},{"SDTMVAR":"EXROUTE","SDTMDOM":"EX"},{"SDTMVAR":"EXSCHDY","SDTMDOM":"SUPPEX"},{"SDTMVAR":"EXSEQ","SDTMDOM":"EX"},{"SDTMVAR":"EXSPID","SDTMDOM":"EX"},{"SDTMVAR":"EXSTDAY","SDTMDOM":"SUPPEX"},{"SDTMVAR":"EXSTDTC","SDTMDOM":"EX"},{"SDTMVAR":"EXSTDY","SDTMDOM":"EX"},{"SDTMVAR":"EXTPT","SDTMDOM":"EX"},{"SDTMVAR":"EXTPTNUM","SDTMDOM":"EX"},{"SDTMVAR":"EXTPTREF","SDTMDOM":"EX"},{"SDTMVAR":"EXTPTTM","SDTMDOM":"SUPPEX"},{"SDTMVAR":"EXTRT","SDTMDOM":"EX"},{"SDTMVAR":"EXTRTCMP","SDTMDOM":"SUPPEX"},{"SDTMVAR":"EXTRTV","SDTMDOM":"EX"},{"SDTMVAR":"EXVAMT","SDTMDOM":"EX"},{"SDTMVAR":"EXVAMTU","SDTMDOM":"EX"},{"SDTMVAR":"FAAENO","SDTMDOM":"SUPPFAAE"},{"SDTMVAR":"FABLFL","SDTMDOM":"FA"},{"SDTMVAR":"FACAT","SDTMDOM":"FA;FAAE;FACE;FAPR;FARS"},{"SDTMVAR":"FACLSIG","SDTMDOM":"SUPPFACE"},{"SDTMVAR":"FADRVFL","SDTMDOM":"FA"},{"SDTMVAR":"FADTC","SDTMDOM":"FA;FACE"},{"SDTMVAR":"FADY","SDTMDOM":"FA"},{"SDTMVAR":"FAELTM","SDTMDOM":"FA"},{"SDTMVAR":"FAEVAL","SDTMDOM":"FA"},{"SDTMVAR":"FAGRPID","SDTMDOM":"FA"},{"SDTMVAR":"FALAT","SDTMDOM":"FA;FACE;FAPR"},{"SDTMVAR":"FALNKID","SDTMDOM":"FA;FAAE;FACE;FAPR;FARS"},{"SDTMVAR":"FALOC","SDTMDOM":"FA"},{"SDTMVAR":"FAOBJ","SDTMDOM":"FA;FAAE;FACE;FAPR;FARS"},{"SDTMVAR":"FAORRES","SDTMDOM":"FA;FAAE;FACE;FAPR;FARS"},{"SDTMVAR":"FAORRESN","SDTMDOM":"SUPPFA"},{"SDTMVAR":"FAORRESU","SDTMDOM":"FA;FAAE;FACE;FAPR"},{"SDTMVAR":"FAREASND","SDTMDOM":"FA"},{"SDTMVAR":"FAREFID","SDTMDOM":"FA;FAAE;FACE;FAPR"},{"SDTMVAR":"FASCAT","SDTMDOM":"FA;FARS"},{"SDTMVAR":"FASEQ","SDTMDOM":"FA;FAAE;FACE;FAPR;FARS"},{"SDTMVAR":"FASPID","SDTMDOM":"FA;FAAE;FACE;FAPR;FARS"},{"SDTMVAR":"FASTAT","SDTMDOM":"FA"},{"SDTMVAR":"FASTRESC","SDTMDOM":"FA;FAAE;FACE;FAPR;FARS"},{"SDTMVAR":"FASTRESN","SDTMDOM":"FA;FAAE;FACE;FAPR"},{"SDTMVAR":"FASTRESU","SDTMDOM":"FA;FAAE;FACE;FAPR"},{"SDTMVAR":"FASTRTPT","SDTMDOM":"FA"},{"SDTMVAR":"FASTTPT","SDTMDOM":"FA"},{"SDTMVAR":"FATEST","SDTMDOM":"FA;FAAE;FACE;FAPR;FARS"},{"SDTMVAR":"FATESTCD","SDTMDOM":"FA;FAAE;FACE;FAPR;FARS"},{"SDTMVAR":"FATPT","SDTMDOM":"FA"},{"SDTMVAR":"FATPTNUM","SDTMDOM":"FA"},{"SDTMVAR":"FATPTREF","SDTMDOM":"FA"},{"SDTMVAR":"FTBLFL","SDTMDOM":"FT"},{"SDTMVAR":"FTCAT","SDTMDOM":"FT"},{"SDTMVAR":"FTDRVFL","SDTMDOM":"FT"},{"SDTMVAR":"FTDTC","SDTMDOM":"FT"},{"SDTMVAR":"FTDY","SDTMDOM":"FT"},{"SDTMVAR":"FTELTM","SDTMDOM":"FT"},{"SDTMVAR":"FTEVAL","SDTMDOM":"FT"},{"SDTMVAR":"FTGRPID","SDTMDOM":"FT"},{"SDTMVAR":"FTMETHOD","SDTMDOM":"FT"},{"SDTMVAR":"FTNAM","SDTMDOM":"FT"},{"SDTMVAR":"FTORRES","SDTMDOM":"FT"},{"SDTMVAR":"FTORRESU","SDTMDOM":"FT"},{"SDTMVAR":"FTPOS","SDTMDOM":"FT"},{"SDTMVAR":"FTREASND","SDTMDOM":"FT"},{"SDTMVAR":"FTREFID","SDTMDOM":"FT"},{"SDTMVAR":"FTREPNUM","SDTMDOM":"SUPPFT"},{"SDTMVAR":"FTRFTDTC","SDTMDOM":"FT"},{"SDTMVAR":"FTSCAT","SDTMDOM":"FT"},{"SDTMVAR":"FTSEQ","SDTMDOM":"FT"},{"SDTMVAR":"FTSPID","SDTMDOM":"FT"},{"SDTMVAR":"FTSTAT","SDTMDOM":"FT"},{"SDTMVAR":"FTSTRESC","SDTMDOM":"FT"},{"SDTMVAR":"FTSTRESN","SDTMDOM":"FT"},{"SDTMVAR":"FTSTRESU","SDTMDOM":"FT"},{"SDTMVAR":"FTTEST","SDTMDOM":"FT"},{"SDTMVAR":"FTTESTCD","SDTMDOM":"FT"},{"SDTMVAR":"FTTPT","SDTMDOM":"FT"},{"SDTMVAR":"FTTPTNUM","SDTMDOM":"FT"},{"SDTMVAR":"FTTPTREF","SDTMDOM":"FT"},{"SDTMVAR":"FTTSTDTL","SDTMDOM":"FT"},{"SDTMVAR":"HOAENO","SDTMDOM":"SUPPHO"},{"SDTMVAR":"HOCAT","SDTMDOM":"HO"},{"SDTMVAR":"HODECOD","SDTMDOM":"HO"},{"SDTMVAR":"HODTC","SDTMDOM":"HO"},{"SDTMVAR":"HODUR","SDTMDOM":"HO"},{"SDTMVAR":"HODY","SDTMDOM":"HO"},{"SDTMVAR":"HOENDTC","SDTMDOM":"HO"},{"SDTMVAR":"HOENDY","SDTMDOM":"HO"},{"SDTMVAR":"HOENRTPT","SDTMDOM":"HO"},{"SDTMVAR":"HOENTPT","SDTMDOM":"HO"},{"SDTMVAR":"HOGRPID","SDTMDOM":"HO"},{"SDTMVAR":"HOOCCUR","SDTMDOM":"HO"},{"SDTMVAR":"HOPRESP","SDTMDOM":"HO"},{"SDTMVAR":"HOPRNO","SDTMDOM":"SUPPHO"},{"SDTMVAR":"HOREASND","SDTMDOM":"HO"},{"SDTMVAR":"HOREFID","SDTMDOM":"HO"},{"SDTMVAR":"HOSCAT","SDTMDOM":"HO"},{"SDTMVAR":"HOSEQ","SDTMDOM":"HO"},{"SDTMVAR":"HOSPID","SDTMDOM":"HO"},{"SDTMVAR":"HOSTAT","SDTMDOM":"HO"},{"SDTMVAR":"HOSTDTC","SDTMDOM":"HO"},{"SDTMVAR":"HOSTDY","SDTMDOM":"HO"},{"SDTMVAR":"HOSTRTPT","SDTMDOM":"HO"},{"SDTMVAR":"HOSTTPT","SDTMDOM":"HO"},{"SDTMVAR":"HOTERM","SDTMDOM":"HO"},{"SDTMVAR":"IDVAR","SDTMDOM":"CO;RELREC"},{"SDTMVAR":"IDVARVAL","SDTMDOM":"CO;RELREC"},{"SDTMVAR":"IECAT","SDTMDOM":"IE;TI"},{"SDTMVAR":"IECOVAL","SDTMDOM":"SUPPIE"},{"SDTMVAR":"IEORRES","SDTMDOM":"IE"},{"SDTMVAR":"IESCAT","SDTMDOM":"IE;TI"},{"SDTMVAR":"IESEQ","SDTMDOM":"IE"},{"SDTMVAR":"IESTRESC","SDTMDOM":"IE"},{"SDTMVAR":"IETEST","SDTMDOM":"IE;TI"},{"SDTMVAR":"IETESTCD","SDTMDOM":"IE;LDV;TI"},{"SDTMVAR":"IEVERS","SDTMDOM":"SUPPDM;SUPPIE"},{"SDTMVAR":"INVID","SDTMDOM":"DM"},{"SDTMVAR":"INVNAM","SDTMDOM":"DM"},{"SDTMVAR":"ISBLFL","SDTMDOM":"IS"},{"SDTMVAR":"ISCAT","SDTMDOM":"IS"},{"SDTMVAR":"ISCOVAL","SDTMDOM":"SUPPIS"},{"SDTMVAR":"ISDTC","SDTMDOM":"IS"},{"SDTMVAR":"ISDY","SDTMDOM":"IS"},{"SDTMVAR":"ISGRPID","SDTMDOM":"IS"},{"SDTMVAR":"ISLLOQ","SDTMDOM":"IS"},{"SDTMVAR":"ISMETHOD","SDTMDOM":"IS"},{"SDTMVAR":"ISNAM","SDTMDOM":"IS"},{"SDTMVAR":"ISORRES","SDTMDOM":"IS"},{"SDTMVAR":"ISORRESU","SDTMDOM":"IS"},{"SDTMVAR":"ISPERIOD","SDTMDOM":"SUPPIS"},{"SDTMVAR":"ISREASND","SDTMDOM":"IS"},{"SDTMVAR":"ISREFID","SDTMDOM":"IS"},{"SDTMVAR":"ISREPNUM","SDTMDOM":"SUPPIS"},{"SDTMVAR":"ISSCAT","SDTMDOM":"IS"},{"SDTMVAR":"ISSEQ","SDTMDOM":"IS"},{"SDTMVAR":"ISSPCCND","SDTMDOM":"IS"},{"SDTMVAR":"ISSPEC","SDTMDOM":"IS"},{"SDTMVAR":"ISSPID","SDTMDOM":"IS"},{"SDTMVAR":"ISSTAT","SDTMDOM":"IS"},{"SDTMVAR":"ISSTRESC","SDTMDOM":"IS"},{"SDTMVAR":"ISSTRESN","SDTMDOM":"IS"},{"SDTMVAR":"ISSTRESU","SDTMDOM":"IS"},{"SDTMVAR":"ISTARGET","SDTMDOM":"SUPPIS"},{"SDTMVAR":"ISTEST","SDTMDOM":"IS"},{"SDTMVAR":"ISTESTCD","SDTMDOM":"IS"},{"SDTMVAR":"ISTPT","SDTMDOM":"IS"},{"SDTMVAR":"ISTPTNUM","SDTMDOM":"IS"},{"SDTMVAR":"ISTSTDTL","SDTMDOM":"IS"},{"SDTMVAR":"ISULOQ","SDTMDOM":"IS"},{"SDTMVAR":"ITT","SDTMDOM":"SUPPDM"},{"SDTMVAR":"LBACCYN","SDTMDOM":"SUPPLB"},{"SDTMVAR":"LBAENO","SDTMDOM":"SUPPLB;SUPPLBUS"},{"SDTMVAR":"LBALRTFL","SDTMDOM":"SUPPLB;SUPPLBUS"},{"SDTMVAR":"LBBLFL","SDTMDOM":"LB;LBUS"},{"SDTMVAR":"LBCAT","SDTMDOM":"LB;LBUS"},{"SDTMVAR":"LBCLMETH","SDTMDOM":"SUPPLB;SUPPLBUS"},{"SDTMVAR":"LBCLSIG","SDTMDOM":"SUPPLB;SUPPLBUS"},{"SDTMVAR":"LBCM","SDTMDOM":"SUPPLB"},{"SDTMVAR":"LBCOND","SDTMDOM":"SUPPLB;SUPPLBUS"},{"SDTMVAR":"LBCONV","SDTMDOM":"SUPPLB;SUPPLBUS"},{"SDTMVAR":"LBCOVAL","SDTMDOM":"SUPPLB;SUPPLBUS"},{"SDTMVAR":"LBDICTV","SDTMDOM":"SUPPLB;SUPPLBUS"},{"SDTMVAR":"LBDIGIT","SDTMDOM":"SUPPLB;SUPPLBUS"},{"SDTMVAR":"LBDRVFL","SDTMDOM":"LB;LBUS"},{"SDTMVAR":"LBDTC","SDTMDOM":"LB;LBUS"},{"SDTMVAR":"LBDY","SDTMDOM":"LB;LBUS"},{"SDTMVAR":"LBELTM","SDTMDOM":"LB;LBUS"},{"SDTMVAR":"LBENDTC","SDTMDOM":"LB;LBUS"},{"SDTMVAR":"LBENDY","SDTMDOM":"LB;LBUS"},{"SDTMVAR":"LBENRTPT","SDTMDOM":"LB;LBUS"},{"SDTMVAR":"LBENTPT","SDTMDOM":"LB;LBUS"},{"SDTMVAR":"LBETPTNM","SDTMDOM":"SUPPLB;SUPPLBUS"},{"SDTMVAR":"LBEVAL","SDTMDOM":"LB"},{"SDTMVAR":"LBFAST","SDTMDOM":"LB;LBUS"},{"SDTMVAR":"LBGRPID","SDTMDOM":"LB;LBUS"},{"SDTMVAR":"LBLIMSID","SDTMDOM":"SUPPLB;SUPPLBUS"},{"SDTMVAR":"LBLNKID","SDTMDOM":"LB;LBUS"},{"SDTMVAR":"LBLOINC","SDTMDOM":"LB;LBUS"},{"SDTMVAR":"LBMETHOD","SDTMDOM":"LB;LBUS"},{"SDTMVAR":"LBNAM","SDTMDOM":"LB;LBUS"},{"SDTMVAR":"LBNOABN","SDTMDOM":"SUPPLB;SUPPLBUS"},{"SDTMVAR":"LBNRIND","SDTMDOM":"LB;LBUS"},{"SDTMVAR":"LBOREREA","SDTMDOM":"SUPPLB"},{"SDTMVAR":"LBORESSP","SDTMDOM":"SUPPLB"},{"SDTMVAR":"LBORESTK","SDTMDOM":"SUPPLB"},{"SDTMVAR":"LBORNRHI","SDTMDOM":"LB;LBUS"},{"SDTMVAR":"LBORNRLO","SDTMDOM":"LB;LBUS"},{"SDTMVAR":"LBORRES","SDTMDOM":"LB;LBUS"},{"SDTMVAR":"LBORRESU","SDTMDOM":"LB;LBUS"},{"SDTMVAR":"LBPROFID","SDTMDOM":"SUPPLB"},{"SDTMVAR":"LBRANTYP","SDTMDOM":"SUPPLB;SUPPLBUS"},{"SDTMVAR":"LBREASND","SDTMDOM":"LB;LBUS"},{"SDTMVAR":"LBREFID","SDTMDOM":"LB;LBUS"},{"SDTMVAR":"LBRFTDTC","SDTMDOM":"LB;LBUS"},{"SDTMVAR":"LBROWID","SDTMDOM":"SUPPLB;SUPPLBUS"},{"SDTMVAR":"LBSAMID","SDTMDOM":"SUPPLB;SUPPLBUS"},{"SDTMVAR":"LBSCAT","SDTMDOM":"LB;LBUS"},{"SDTMVAR":"LBSEQ","SDTMDOM":"LB;LBUS"},{"SDTMVAR":"LBSONRHI","SDTMDOM":"SUPPLB;SUPPLBUS"},{"SDTMVAR":"LBSONRLO","SDTMDOM":"SUPPLB;SUPPLBUS"},{"SDTMVAR":"LBSPCCND","SDTMDOM":"LB;LBUS"},{"SDTMVAR":"LBSPEC","SDTMDOM":"LB;LBUS"},{"SDTMVAR":"LBSPID","SDTMDOM":"LB;LBUS"},{"SDTMVAR":"LBSTAT","SDTMDOM":"LB;LBUS"},{"SDTMVAR":"LBSTNRC","SDTMDOM":"LB;LBUS"},{"SDTMVAR":"LBSTNRHI","SDTMDOM":"LB;LBUS"},{"SDTMVAR":"LBSTNRLO","SDTMDOM":"LB;LBUS"},{"SDTMVAR":"LBSTRESC","SDTMDOM":"LB;LBUS"},{"SDTMVAR":"LBSTRESN","SDTMDOM":"LB;LBUS"},{"SDTMVAR":"LBSTRESU","SDTMDOM":"LB;LBUS"},{"SDTMVAR":"LBTCOVAL","SDTMDOM":"SUPPLB;SUPPLBUS"},{"SDTMVAR":"LBTEST","SDTMDOM":"LB;LBUS"},{"SDTMVAR":"LBTESTCD","SDTMDOM":"LB;LBUS"},{"SDTMVAR":"LBTOX","SDTMDOM":"LB;LBUS"},{"SDTMVAR":"LBTOXGR","SDTMDOM":"LB;LBUS"},{"SDTMVAR":"LBTPT","SDTMDOM":"LB;LBUS"},{"SDTMVAR":"LBTPTNUM","SDTMDOM":"LB;LBUS"},{"SDTMVAR":"LBTPTREF","SDTMDOM":"LB;LBUS"},{"SDTMVAR":"LBTYPE","SDTMDOM":"SUPPLB;SUPPLBUS"},{"SDTMVAR":"LBULOD","SDTMDOM":"SUPPLB"},{"SDTMVAR":"MHBDSYCD","SDTMDOM":"APMH;MH"},{"SDTMVAR":"MHBODSYS","SDTMDOM":"APMH;MH"},{"SDTMVAR":"MHCAT","SDTMDOM":"APMH;MH"},{"SDTMVAR":"MHDECOD","SDTMDOM":"APMH;MH"},{"SDTMVAR":"MHDICTV","SDTMDOM":"SUPPMH"},{"SDTMVAR":"MHENDTC","SDTMDOM":"MH"},{"SDTMVAR":"MHENDY","SDTMDOM":"MH"},{"SDTMVAR":"MHENRTPT","SDTMDOM":"MH"},{"SDTMVAR":"MHENTPT","SDTMDOM":"MH"},{"SDTMVAR":"MHEVDTYP","SDTMDOM":"SUPPMH"},{"SDTMVAR":"MHEVINTX","SDTMDOM":"MH"},{"SDTMVAR":"MHHLGT","SDTMDOM":"APMH;MH"},{"SDTMVAR":"MHHLGTCD","SDTMDOM":"APMH;MH"},{"SDTMVAR":"MHHLT","SDTMDOM":"APMH;MH"},{"SDTMVAR":"MHHLTCD","SDTMDOM":"APMH;MH"},{"SDTMVAR":"MHLLT","SDTMDOM":"APMH;MH"},{"SDTMVAR":"MHLLTCD","SDTMDOM":"APMH;MH"},{"SDTMVAR":"MHLNKID","SDTMDOM":"MH"},{"SDTMVAR":"MHLOC","SDTMDOM":"MH"},{"SDTMVAR":"MHLOCOTH","SDTMDOM":"SUPPMH"},{"SDTMVAR":"MHOCCUR","SDTMDOM":"APMH;MH"},{"SDTMVAR":"MHPRESP","SDTMDOM":"APMH;MH"},{"SDTMVAR":"MHPTCD","SDTMDOM":"APMH;MH"},{"SDTMVAR":"MHSCAT","SDTMDOM":"MH"},{"SDTMVAR":"MHSEQ","SDTMDOM":"APMH;MH"},{"SDTMVAR":"MHSOC","SDTMDOM":"APMH;MH"},{"SDTMVAR":"MHSOCCD","SDTMDOM":"APMH;MH"},{"SDTMVAR":"MHSPID","SDTMDOM":"APMH;MH"},{"SDTMVAR":"MHSTAT","SDTMDOM":"APMH;MH"},{"SDTMVAR":"MHSTDTC","SDTMDOM":"MH"},{"SDTMVAR":"MHSTDY","SDTMDOM":"MH"},{"SDTMVAR":"MHTERM","SDTMDOM":"APMH;MH"},{"SDTMVAR":"MIBLFL","SDTMDOM":"MI"},{"SDTMVAR":"MICAT","SDTMDOM":"MI"},{"SDTMVAR":"MIDTC","SDTMDOM":"MI"},{"SDTMVAR":"MIDY","SDTMDOM":"MI"},{"SDTMVAR":"MILOC","SDTMDOM":"MI"},{"SDTMVAR":"MIMETHOD","SDTMDOM":"MI"},{"SDTMVAR":"MIORRES","SDTMDOM":"MI"},{"SDTMVAR":"MIORRESU","SDTMDOM":"MI"},{"SDTMVAR":"MISCAT","SDTMDOM":"MI"},{"SDTMVAR":"MISEQ","SDTMDOM":"MI"},{"SDTMVAR":"MISPCCND","SDTMDOM":"MI"},{"SDTMVAR":"MISPEC","SDTMDOM":"MI"},{"SDTMVAR":"MISPID","SDTMDOM":"MI"},{"SDTMVAR":"MISTAT","SDTMDOM":"MI"},{"SDTMVAR":"MISTRESC","SDTMDOM":"MI"},{"SDTMVAR":"MISTRESN","SDTMDOM":"MI"},{"SDTMVAR":"MISTRESU","SDTMDOM":"MI"},{"SDTMVAR":"MITEST","SDTMDOM":"MI"},{"SDTMVAR":"MITESTCD","SDTMDOM":"MI"},{"SDTMVAR":"MITSTDTL","SDTMDOM":"MI"},{"SDTMVAR":"MKBLFL","SDTMDOM":"MK"},{"SDTMVAR":"MKCAT","SDTMDOM":"MK"},{"SDTMVAR":"MKDIR","SDTMDOM":"MK"},{"SDTMVAR":"MKDRVFL","SDTMDOM":"MK"},{"SDTMVAR":"MKDTC","SDTMDOM":"MK"},{"SDTMVAR":"MKDY","SDTMDOM":"MK"},{"SDTMVAR":"MKELTM","SDTMDOM":"MK"},{"SDTMVAR":"MKEVAL","SDTMDOM":"MK"},{"SDTMVAR":"MKEVALID","SDTMDOM":"MK"},{"SDTMVAR":"MKGRPID","SDTMDOM":"MK"},{"SDTMVAR":"MKLAT","SDTMDOM":"MK"},{"SDTMVAR":"MKLNKGRP","SDTMDOM":"MK"},{"SDTMVAR":"MKLNKID","SDTMDOM":"MK"},{"SDTMVAR":"MKLOC","SDTMDOM":"MK"},{"SDTMVAR":"MKMETHOD","SDTMDOM":"MK"},{"SDTMVAR":"MKORRES","SDTMDOM":"MK"},{"SDTMVAR":"MKPOS","SDTMDOM":"MK"},{"SDTMVAR":"MKREASND","SDTMDOM":"MK"},{"SDTMVAR":"MKREFID","SDTMDOM":"MK"},{"SDTMVAR":"MKRFTDTC","SDTMDOM":"MK"},{"SDTMVAR":"MKSCAT","SDTMDOM":"MK"},{"SDTMVAR":"MKSEQ","SDTMDOM":"MK"},{"SDTMVAR":"MKSPID","SDTMDOM":"MK"},{"SDTMVAR":"MKSTAT","SDTMDOM":"MK"},{"SDTMVAR":"MKSTRESC","SDTMDOM":"MK"},{"SDTMVAR":"MKSTRESN","SDTMDOM":"MK"},{"SDTMVAR":"MKTEST","SDTMDOM":"MK"},{"SDTMVAR":"MKTESTCD","SDTMDOM":"MK"},{"SDTMVAR":"MKTPT","SDTMDOM":"MK"},{"SDTMVAR":"MKTPTNUM","SDTMDOM":"MK"},{"SDTMVAR":"MKTPTREF","SDTMDOM":"MK"},{"SDTMVAR":"MLCAT","SDTMDOM":"ML"},{"SDTMVAR":"MLDOSE","SDTMDOM":"ML"},{"SDTMVAR":"MLDOSTXT","SDTMDOM":"ML"},{"SDTMVAR":"MLDOSU","SDTMDOM":"ML"},{"SDTMVAR":"MLELTM","SDTMDOM":"ML"},{"SDTMVAR":"MLENDTC","SDTMDOM":"ML"},{"SDTMVAR":"MLENDY","SDTMDOM":"ML"},{"SDTMVAR":"MLLNKID","SDTMDOM":"ML"},{"SDTMVAR":"MLOCCUR","SDTMDOM":"ML"},{"SDTMVAR":"MLPRESP","SDTMDOM":"ML"},{"SDTMVAR":"MLSCAT","SDTMDOM":"ML"},{"SDTMVAR":"MLSEQ","SDTMDOM":"ML"},{"SDTMVAR":"MLSTAT","SDTMDOM":"ML"},{"SDTMVAR":"MLSTDTC","SDTMDOM":"ML"},{"SDTMVAR":"MLSTDY","SDTMDOM":"ML"},{"SDTMVAR":"MLSTRTPT","SDTMDOM":"ML"},{"SDTMVAR":"MLSTTPT","SDTMDOM":"ML"},{"SDTMVAR":"MLTPT","SDTMDOM":"ML"},{"SDTMVAR":"MLTPTNUM","SDTMDOM":"ML"},{"SDTMVAR":"MLTPTREF","SDTMDOM":"ML"},{"SDTMVAR":"MLTRT","SDTMDOM":"ML"},{"SDTMVAR":"MOANMETH","SDTMDOM":"MO"},{"SDTMVAR":"MOBLFL","SDTMDOM":"MO"},{"SDTMVAR":"MOCAT","SDTMDOM":"MO"},{"SDTMVAR":"MOCLSIG","SDTMDOM":"SUPPMO"},{"SDTMVAR":"MOCLSIGC","SDTMDOM":"SUPPMO"},{"SDTMVAR":"MODIR","SDTMDOM":"MO"},{"SDTMVAR":"MODRVFL","SDTMDOM":"MO"},{"SDTMVAR":"MODTC","SDTMDOM":"MO"},{"SDTMVAR":"MODY","SDTMDOM":"MO"},{"SDTMVAR":"MOELTM","SDTMDOM":"MO"},{"SDTMVAR":"MOEVAL","SDTMDOM":"MO"},{"SDTMVAR":"MOGRPID","SDTMDOM":"MO"},{"SDTMVAR":"MOLAT","SDTMDOM":"MO"},{"SDTMVAR":"MOLNKID","SDTMDOM":"MO"},{"SDTMVAR":"MOLOC","SDTMDOM":"MO"},{"SDTMVAR":"MOMETHOD","SDTMDOM":"MO"},{"SDTMVAR":"MOMETOTH","SDTMDOM":"SUPPMO"},{"SDTMVAR":"MONAM","SDTMDOM":"MO"},{"SDTMVAR":"MOORRES","SDTMDOM":"MO"},{"SDTMVAR":"MOORRESU","SDTMDOM":"MO"},{"SDTMVAR":"MOPORTOT","SDTMDOM":"MO"},{"SDTMVAR":"MOPOS","SDTMDOM":"MO"},{"SDTMVAR":"MOREASND","SDTMDOM":"MO"},{"SDTMVAR":"MOREFID","SDTMDOM":"MO"},{"SDTMVAR":"MORFTDTC","SDTMDOM":"MO"},{"SDTMVAR":"MOSCAT","SDTMDOM":"MO"},{"SDTMVAR":"MOSEQ","SDTMDOM":"MO"},{"SDTMVAR":"MOSPID","SDTMDOM":"MO"},{"SDTMVAR":"MOSTAT","SDTMDOM":"MO"},{"SDTMVAR":"MOSTRESC","SDTMDOM":"MO"},{"SDTMVAR":"MOSTRESN","SDTMDOM":"MO"},{"SDTMVAR":"MOSTRESU","SDTMDOM":"MO"},{"SDTMVAR":"MOTEST","SDTMDOM":"MO"},{"SDTMVAR":"MOTESTCD","SDTMDOM":"MO"},{"SDTMVAR":"MOTPT","SDTMDOM":"MO"},{"SDTMVAR":"MOTPTNUM","SDTMDOM":"MO"},{"SDTMVAR":"MOTPTREF","SDTMDOM":"MO"},{"SDTMVAR":"MOXFN","SDTMDOM":"MO"},{"SDTMVAR":"NVBLFL","SDTMDOM":"NV"},{"SDTMVAR":"NVCAT","SDTMDOM":"NV"},{"SDTMVAR":"NVDIR","SDTMDOM":"NV"},{"SDTMVAR":"NVDRVFL","SDTMDOM":"NV"},{"SDTMVAR":"NVDTC","SDTMDOM":"NV"},{"SDTMVAR":"NVDY","SDTMDOM":"NV"},{"SDTMVAR":"NVELTM","SDTMDOM":"NV"},{"SDTMVAR":"NVEVAL","SDTMDOM":"NV"},{"SDTMVAR":"NVGRPID","SDTMDOM":"NV"},{"SDTMVAR":"NVLAT","SDTMDOM":"NV"},{"SDTMVAR":"NVLNKID","SDTMDOM":"NV"},{"SDTMVAR":"NVLOC","SDTMDOM":"NV"},{"SDTMVAR":"NVMETHOD","SDTMDOM":"NV"},{"SDTMVAR":"NVORRES","SDTMDOM":"NV"},{"SDTMVAR":"NVORRESU","SDTMDOM":"NV"},{"SDTMVAR":"NVREASND","SDTMDOM":"NV"},{"SDTMVAR":"NVREFID","SDTMDOM":"NV"},{"SDTMVAR":"NVRFTDTC","SDTMDOM":"NV"},{"SDTMVAR":"NVSCAT","SDTMDOM":"NV"},{"SDTMVAR":"NVSEQ","SDTMDOM":"NV"},{"SDTMVAR":"NVSPID","SDTMDOM":"NV"},{"SDTMVAR":"NVSTAT","SDTMDOM":"NV"},{"SDTMVAR":"NVSTRESC","SDTMDOM":"NV"},{"SDTMVAR":"NVSTRESN","SDTMDOM":"NV"},{"SDTMVAR":"NVSTRESU","SDTMDOM":"NV"},{"SDTMVAR":"NVTEST","SDTMDOM":"NV"},{"SDTMVAR":"NVTESTCD","SDTMDOM":"NV"},{"SDTMVAR":"NVTPT","SDTMDOM":"NV"},{"SDTMVAR":"NVTPTNUM","SDTMDOM":"NV"},{"SDTMVAR":"NVTPTREF","SDTMDOM":"NV"},{"SDTMVAR":"OEACPTFL","SDTMDOM":"OE"},{"SDTMVAR":"OEBLFL","SDTMDOM":"OE"},{"SDTMVAR":"OECAT","SDTMDOM":"OE"},{"SDTMVAR":"OEDIR","SDTMDOM":"OE"},{"SDTMVAR":"OEDRVFL","SDTMDOM":"OE"},{"SDTMVAR":"OEDTC","SDTMDOM":"OE"},{"SDTMVAR":"OEDY","SDTMDOM":"OE"},{"SDTMVAR":"OEEVAL","SDTMDOM":"OE"},{"SDTMVAR":"OEEVALID","SDTMDOM":"OE"},{"SDTMVAR":"OEGRPID","SDTMDOM":"OE"},{"SDTMVAR":"OELAT","SDTMDOM":"OE"},{"SDTMVAR":"OELNKID","SDTMDOM":"OE"},{"SDTMVAR":"OELOC","SDTMDOM":"OE"},{"SDTMVAR":"OEMETHOD","SDTMDOM":"OE"},{"SDTMVAR":"OENRIND","SDTMDOM":"OE"},{"SDTMVAR":"OEORNRHI","SDTMDOM":"OE"},{"SDTMVAR":"OEORNRLO","SDTMDOM":"OE"},{"SDTMVAR":"OEORRES","SDTMDOM":"OE"},{"SDTMVAR":"OEORRESU","SDTMDOM":"OE"},{"SDTMVAR":"OEPORTOT","SDTMDOM":"OE"},{"SDTMVAR":"OEREASND","SDTMDOM":"OE"},{"SDTMVAR":"OEREPNUM","SDTMDOM":"SUPPOE"},{"SDTMVAR":"OERESCAT","SDTMDOM":"OE"},{"SDTMVAR":"OERUNID","SDTMDOM":"OE"},{"SDTMVAR":"OESCAT","SDTMDOM":"OE"},{"SDTMVAR":"OESEQ","SDTMDOM":"OE"},{"SDTMVAR":"OESP","SDTMDOM":"SUPPOE"},{"SDTMVAR":"OESTAT","SDTMDOM":"OE"},{"SDTMVAR":"OESTNRC","SDTMDOM":"OE"},{"SDTMVAR":"OESTNRHI","SDTMDOM":"OE"},{"SDTMVAR":"OESTNRLO","SDTMDOM":"OE"},{"SDTMVAR":"OESTRESC","SDTMDOM":"OE"},{"SDTMVAR":"OESTRESN","SDTMDOM":"OE"},{"SDTMVAR":"OESTRESU","SDTMDOM":"OE"},{"SDTMVAR":"OETEST","SDTMDOM":"OE"},{"SDTMVAR":"OETESTCD","SDTMDOM":"OE"},{"SDTMVAR":"OETPT","SDTMDOM":"OE"},{"SDTMVAR":"OETPTNUM","SDTMDOM":"OE"},{"SDTMVAR":"OETPTREF","SDTMDOM":"OE"},{"SDTMVAR":"OETSTDTL","SDTMDOM":"OE"},{"SDTMVAR":"OEXFN","SDTMDOM":"OE"},{"SDTMVAR":"PCCAT","SDTMDOM":"PC"},{"SDTMVAR":"PCDRVFL","SDTMDOM":"PC"},{"SDTMVAR":"PCDTC","SDTMDOM":"PC"},{"SDTMVAR":"PCDY","SDTMDOM":"PC"},{"SDTMVAR":"PCELTM","SDTMDOM":"PC"},{"SDTMVAR":"PCENDTC","SDTMDOM":"PC"},{"SDTMVAR":"PCENDY","SDTMDOM":"PC"},{"SDTMVAR":"PCENRTPT","SDTMDOM":"PC"},{"SDTMVAR":"PCENTPT","SDTMDOM":"PC"},{"SDTMVAR":"PCEVLINT","SDTMDOM":"PC"},{"SDTMVAR":"PCFAST","SDTMDOM":"PC"},{"SDTMVAR":"PCGRPID","SDTMDOM":"PC"},{"SDTMVAR":"PCLLOQ","SDTMDOM":"PC"},{"SDTMVAR":"PCMETHOD","SDTMDOM":"PC"},{"SDTMVAR":"PCNAM","SDTMDOM":"PC"},{"SDTMVAR":"PCORRES","SDTMDOM":"PC"},{"SDTMVAR":"PCORRESU","SDTMDOM":"PC"},{"SDTMVAR":"PCPERIOD","SDTMDOM":"SUPPPC"},{"SDTMVAR":"PCREASND","SDTMDOM":"PC"},{"SDTMVAR":"PCREFID","SDTMDOM":"PC"},{"SDTMVAR":"PCRFTDTC","SDTMDOM":"PC"},{"SDTMVAR":"PCSCAT","SDTMDOM":"PC"},{"SDTMVAR":"PCSEQ","SDTMDOM":"PC"},{"SDTMVAR":"PCSPCCND","SDTMDOM":"PC"},{"SDTMVAR":"PCSPEC","SDTMDOM":"PC"},{"SDTMVAR":"PCSPID","SDTMDOM":"PC"},{"SDTMVAR":"PCSTAT","SDTMDOM":"PC"},{"SDTMVAR":"PCSTRESC","SDTMDOM":"PC"},{"SDTMVAR":"PCSTRESN","SDTMDOM":"PC"},{"SDTMVAR":"PCSTRESU","SDTMDOM":"PC"},{"SDTMVAR":"PCTEST","SDTMDOM":"PC"},{"SDTMVAR":"PCTESTCD","SDTMDOM":"PC"},{"SDTMVAR":"PCTPT","SDTMDOM":"PC"},{"SDTMVAR":"PCTPTNUM","SDTMDOM":"PC"},{"SDTMVAR":"PCTPTREF","SDTMDOM":"PC"},{"SDTMVAR":"PCULOQ","SDTMDOM":"PC"},{"SDTMVAR":"PDPOP","SDTMDOM":"SUPPDM"},{"SDTMVAR":"PEAENO","SDTMDOM":"SUPPPE"},{"SDTMVAR":"PECAT","SDTMDOM":"PE"},{"SDTMVAR":"PECLSIG","SDTMDOM":"SUPPPE"},{"SDTMVAR":"PEDTC","SDTMDOM":"PE"},{"SDTMVAR":"PEDY","SDTMDOM":"PE"},{"SDTMVAR":"PEORRES","SDTMDOM":"PE"},{"SDTMVAR":"PEREASND","SDTMDOM":"PE"},{"SDTMVAR":"PESCAT ","SDTMDOM":"PE"},{"SDTMVAR":"PESEQ","SDTMDOM":"PE"},{"SDTMVAR":"PESPID","SDTMDOM":"PE"},{"SDTMVAR":"PESTAT","SDTMDOM":"PE"},{"SDTMVAR":"PESTRESC","SDTMDOM":"PE"},{"SDTMVAR":"PETEST","SDTMDOM":"PE"},{"SDTMVAR":"PETESTCD","SDTMDOM":"PE"},{"SDTMVAR":"PFBLFL","SDTMDOM":"PF"},{"SDTMVAR":"PFCAT","SDTMDOM":"PF"},{"SDTMVAR":"PFDRVFL","SDTMDOM":"PF"},{"SDTMVAR":"PFDTC","SDTMDOM":"PF"},{"SDTMVAR":"PFDY","SDTMDOM":"PF"},{"SDTMVAR":"PFELTM","SDTMDOM":"PF"},{"SDTMVAR":"PFGENLOC","SDTMDOM":"SUPPPF"},{"SDTMVAR":"PFGENRI","SDTMDOM":"SUPPPF"},{"SDTMVAR":"PFGENSR","SDTMDOM":"PF"},{"SDTMVAR":"PFGENTYP","SDTMDOM":"SUPPPF"},{"SDTMVAR":"PFLNKID","SDTMDOM":"PF"},{"SDTMVAR":"PFMETHOD","SDTMDOM":"PF"},{"SDTMVAR":"PFMUTYP","SDTMDOM":"SUPPPF"},{"SDTMVAR":"PFNAM","SDTMDOM":"PF"},{"SDTMVAR":"PFNSPCES","SDTMDOM":"SUPPPF"},{"SDTMVAR":"PFNSTRN","SDTMDOM":"SUPPPF"},{"SDTMVAR":"PFORREF","SDTMDOM":"SUPPPF"},{"SDTMVAR":"PFORRES","SDTMDOM":"PF"},{"SDTMVAR":"PFORRESU","SDTMDOM":"PF"},{"SDTMVAR":"PFPPTYP","SDTMDOM":"SUPPPF"},{"SDTMVAR":"PFREASND","SDTMDOM":"PF"},{"SDTMVAR":"PFREFID","SDTMDOM":"PF"},{"SDTMVAR":"PFREFSEQ","SDTMDOM":"SUPPPF"},{"SDTMVAR":"PFRESCAT","SDTMDOM":"PF"},{"SDTMVAR":"PFRFTDTC","SDTMDOM":"PF"},{"SDTMVAR":"PFSCAT","SDTMDOM":"PF"},{"SDTMVAR":"PFSEQ","SDTMDOM":"PF"},{"SDTMVAR":"PFSPEC","SDTMDOM":"PF"},{"SDTMVAR":"PFSPID","SDTMDOM":"PF"},{"SDTMVAR":"PFSTAT","SDTMDOM":"PF"},{"SDTMVAR":"PFSTRESC","SDTMDOM":"PF"},{"SDTMVAR":"PFSTRESN","SDTMDOM":"PF"},{"SDTMVAR":"PFSTRESU","SDTMDOM":"PF"},{"SDTMVAR":"PFTEST","SDTMDOM":"PF"},{"SDTMVAR":"PFTESTCD","SDTMDOM":"PF"},{"SDTMVAR":"PFTPT","SDTMDOM":"PF"},{"SDTMVAR":"PFTPTNUM","SDTMDOM":"PF"},{"SDTMVAR":"PFTPTREF","SDTMDOM":"PF"},{"SDTMVAR":"PFTSTDTL","SDTMDOM":"PF"},{"SDTMVAR":"PFXFN","SDTMDOM":"PF"},{"SDTMVAR":"PGPOP","SDTMDOM":"SUPPDM"},{"SDTMVAR":"PKPDPOP","SDTMDOM":"SUPPDM"},{"SDTMVAR":"PKPOP","SDTMDOM":"SUPPDM"},{"SDTMVAR":"PPCAT","SDTMDOM":"PP"},{"SDTMVAR":"PPENINT","SDTMDOM":"PP"},{"SDTMVAR":"PPGRPID","SDTMDOM":"PP"},{"SDTMVAR":"PPORRES","SDTMDOM":"PP"},{"SDTMVAR":"PPORRESU","SDTMDOM":"PP"},{"SDTMVAR":"PPPERIOD","SDTMDOM":"SUPPPP"},{"SDTMVAR":"PPREASND","SDTMDOM":"PP"},{"SDTMVAR":"PPRFTDTC","SDTMDOM":"PP"},{"SDTMVAR":"PPROT","SDTMDOM":"SUPPDM"},{"SDTMVAR":"PPSCAT","SDTMDOM":"PP"},{"SDTMVAR":"PPSEQ","SDTMDOM":"PP"},{"SDTMVAR":"PPSPEC","SDTMDOM":"PP"},{"SDTMVAR":"PPSTAT","SDTMDOM":"PP"},{"SDTMVAR":"PPSTINT","SDTMDOM":"PP"},{"SDTMVAR":"PPSTRESC","SDTMDOM":"PP"},{"SDTMVAR":"PPSTRESN","SDTMDOM":"PP"},{"SDTMVAR":"PPSTRESU","SDTMDOM":"PP"},{"SDTMVAR":"PPTEST","SDTMDOM":"PP"},{"SDTMVAR":"PPTESTCD","SDTMDOM":"PP"},{"SDTMVAR":"PRAENO","SDTMDOM":"SUPPPR"},{"SDTMVAR":"PRANA","SDTMDOM":"SUPPPR"},{"SDTMVAR":"PRBDSYCD","SDTMDOM":"SUPPPR"},{"SDTMVAR":"PRBODSYS","SDTMDOM":"SUPPPR"},{"SDTMVAR":"PRCAT","SDTMDOM":"PR"},{"SDTMVAR":"PRDECOD","SDTMDOM":"PR"},{"SDTMVAR":"PRDECOD2","SDTMDOM":"SUPPPR"},{"SDTMVAR":"PRDICTV","SDTMDOM":"SUPPPR"},{"SDTMVAR":"PRDICTV2","SDTMDOM":"SUPPPR"},{"SDTMVAR":"PRDOSE","SDTMDOM":"PR"},{"SDTMVAR":"PRDOSTXT","SDTMDOM":"PR"},{"SDTMVAR":"PRDOSU","SDTMDOM":"PR"},{"SDTMVAR":"PRELTM","SDTMDOM":"PR"},{"SDTMVAR":"PRENDTC","SDTMDOM":"PR"},{"SDTMVAR":"PRENDY","SDTMDOM":"PR"},{"SDTMVAR":"PRENRF","SDTMDOM":"PR"},{"SDTMVAR":"PRENRTPT","SDTMDOM":"PR"},{"SDTMVAR":"PRENTPT","SDTMDOM":"PR"},{"SDTMVAR":"PRHLGT","SDTMDOM":"SUPPPR"},{"SDTMVAR":"PRHLGTCD","SDTMDOM":"SUPPPR"},{"SDTMVAR":"PRHLT","SDTMDOM":"SUPPPR"},{"SDTMVAR":"PRHLTCD","SDTMDOM":"SUPPPR"},{"SDTMVAR":"PRINDC","SDTMDOM":"PR"},{"SDTMVAR":"PRINDC1","SDTMDOM":"SUPPPR"},{"SDTMVAR":"PRINDC2","SDTMDOM":"SUPPPR"},{"SDTMVAR":"PRINDC3","SDTMDOM":"SUPPPR"},{"SDTMVAR":"PRINDC4","SDTMDOM":"SUPPPR"},{"SDTMVAR":"PRINDC5","SDTMDOM":"SUPPPR"},{"SDTMVAR":"PRISO","SDTMDOM":"SUPPPR"},{"SDTMVAR":"PRLLT","SDTMDOM":"SUPPPR"},{"SDTMVAR":"PRLLTCD","SDTMDOM":"SUPPPR"},{"SDTMVAR":"PRLNKID","SDTMDOM":"PR"},{"SDTMVAR":"PRLOC","SDTMDOM":"PR"},{"SDTMVAR":"PRMHNO","SDTMDOM":"SUPPPR"},{"SDTMVAR":"PROCCUR","SDTMDOM":"PR"},{"SDTMVAR":"PRPRESP","SDTMDOM":"PR"},{"SDTMVAR":"PRPTCD","SDTMDOM":"SUPPPR"},{"SDTMVAR":"PRRECNO","SDTMDOM":"SUPPPR"},{"SDTMVAR":"PRREFID","SDTMDOM":"PR"},{"SDTMVAR":"PRSCAT","SDTMDOM":"PR"},{"SDTMVAR":"PRSEQ","SDTMDOM":"PR"},{"SDTMVAR":"PRSEQ1","SDTMDOM":"SUPPPR"},{"SDTMVAR":"PRSEQ2","SDTMDOM":"SUPPPR"},{"SDTMVAR":"PRSOC","SDTMDOM":"SUPPPR"},{"SDTMVAR":"PRSOCCD","SDTMDOM":"SUPPPR"},{"SDTMVAR":"PRSPEC","SDTMDOM":"SUPPPR"},{"SDTMVAR":"PRSPEOTH","SDTMDOM":"SUPPPR"},{"SDTMVAR":"PRSPID","SDTMDOM":"PR"},{"SDTMVAR":"PRSTAT","SDTMDOM":"PR"},{"SDTMVAR":"PRSTDTC","SDTMDOM":"PR"},{"SDTMVAR":"PRSTDY","SDTMDOM":"PR"},{"SDTMVAR":"PRTPT","SDTMDOM":"PR"},{"SDTMVAR":"PRTPTNUM","SDTMDOM":"PR"},{"SDTMVAR":"PRTPTREF","SDTMDOM":"PR"},{"SDTMVAR":"PRTRT","SDTMDOM":"PR"},{"SDTMVAR":"PRTRTINT","SDTMDOM":"SUPPPR"},{"SDTMVAR":"PRTYPE","SDTMDOM":"SUPPPR"},{"SDTMVAR":"QSBLFL","SDTMDOM":"QS;QSCQ;QSEG;QSKN;QSPI;QSMR"},{"SDTMVAR":"QSCAT","SDTMDOM":"QS;QSCQ;QSEG;QSKN;QSPI;QSMR"},{"SDTMVAR":"QSDRVFL","SDTMDOM":"QS;QSCQ;QSEG;QSKN;QSPI;QSMR"},{"SDTMVAR":"QSDTC","SDTMDOM":"QS;QSCQ;QSEG;QSKN;QSPI;QSMR"},{"SDTMVAR":"QSDY","SDTMDOM":"QS;QSCQ;QSEG;QSKN;QSPI;QSMR"},{"SDTMVAR":"QSELTM","SDTMDOM":"QS;QSCQ;QSEG;QSKN;QSPI;QSMR"},{"SDTMVAR":"QSEVAL","SDTMDOM":"QS;QSCQ;QSEG;QSKN;QSPI;QSMR"},{"SDTMVAR":"QSEVLINT","SDTMDOM":"QS;QSCQ;QSEG;QSKN;QSPI;QSMR"},{"SDTMVAR":"QSGRPID","SDTMDOM":"QS;QSCQ;QSEG;QSKN;QSPI;QSMR"},{"SDTMVAR":"QSLOC","SDTMDOM":"QSPI;QSMR"},{"SDTMVAR":"QSMETHOD","SDTMDOM":"QS;QSCQ;QSEG;QSKN;QSPI;QSMR"},{"SDTMVAR":"QSORRES","SDTMDOM":"QS;QSCQ;QSEG;QSKN;QSPI;QSMR"},{"SDTMVAR":"QSORRESU","SDTMDOM":"QS;QSCQ;QSEG;QSKN;QSPI;QSMR"},{"SDTMVAR":"QSREASND","SDTMDOM":"QS;QSCQ;QSEG;QSKN;QSPI;QSMR"},{"SDTMVAR":"QSREFID","SDTMDOM":"QS;QSCQ;QSEG;QSKN;QSPI;QSMR"},{"SDTMVAR":"QSRFTDTC","SDTMDOM":"QS;QSCQ;QSEG;QSKN;QSPI;QSMR"},{"SDTMVAR":"QSSCAT","SDTMDOM":"QS;QSCQ;QSEG;QSKN;QSPI;QSMR"},{"SDTMVAR":"QSSEQ","SDTMDOM":"QS;QSCQ;QSEG;QSKN;QSPI;QSMR"},{"SDTMVAR":"QSSPID","SDTMDOM":"QS;QSCQ;QSEG;QSKN;QSPI;QSMR"},{"SDTMVAR":"QSSTAT","SDTMDOM":"QS;QSCQ;QSEG;QSKN;QSPI;QSMR"},{"SDTMVAR":"QSSTRESC","SDTMDOM":"QS;QSCQ;QSEG;QSKN;QSPI;QSMR"},{"SDTMVAR":"QSSTRESN","SDTMDOM":"QS;QSCQ;QSEG;QSKN;QSPI;QSMR"},{"SDTMVAR":"QSSTRESU","SDTMDOM":"QS;QSCQ;QSEG;QSKN;QSPI;QSMR"},{"SDTMVAR":"QSTEST","SDTMDOM":"QS;QSCQ;QSEG;QSKN;QSPI;QSMR"},{"SDTMVAR":"QSTESTCD","SDTMDOM":"QS;QSCQ;QSEG;QSKN;QSPI;QSMR"},{"SDTMVAR":"QSTPT","SDTMDOM":"QS;QSCQ;QSEG;QSKN;QSPI;QSMR"},{"SDTMVAR":"QSTPTNUM","SDTMDOM":"QS;QSCQ;QSEG;QSKN;QSPI;QSMR"},{"SDTMVAR":"QSTPTREF","SDTMDOM":"QS;QSCQ;QSEG;QSKN;QSPI;QSMR"},{"SDTMVAR":"RACE","SDTMDOM":"DM"},{"SDTMVAR":"RACE1","SDTMDOM":"SUPPDM"},{"SDTMVAR":"RACE2","SDTMDOM":"SUPPDM"},{"SDTMVAR":"RACE3","SDTMDOM":"SUPPDM"},{"SDTMVAR":"RACE4","SDTMDOM":"SUPPDM"},{"SDTMVAR":"RACE5","SDTMDOM":"SUPPDM"},{"SDTMVAR":"RACEOR","SDTMDOM":"SUPPDM"},{"SDTMVAR":"RANDOM","SDTMDOM":"SUPPDM"},{"SDTMVAR":"RDALDTC","SDTMDOM":"IVRS"},{"SDTMVAR":"RDALGDTC","SDTMDOM":"IVRS;RAND"},{"SDTMVAR":"RDARM","SDTMDOM":"IVRS;RAND"},{"SDTMVAR":"RDARMN","SDTMDOM":"RAND"},{"SDTMVAR":"RDBKDDTC","SDTMDOM":"IVRS"},{"SDTMVAR":"RDBKUNB","SDTMDOM":"IVRS"},{"SDTMVAR":"RDBKWHO","SDTMDOM":"IVRS"},{"SDTMVAR":"RDBLKNB","SDTMDOM":"IVRS;RAND"},{"SDTMVAR":"RDGROUP1","SDTMDOM":"IVRS"},{"SDTMVAR":"RDGROUP2","SDTMDOM":"IVRS"},{"SDTMVAR":"RDGROUP3","SDTMDOM":"IVRS"},{"SDTMVAR":"RDOMAIN","SDTMDOM":"CO;RELREC"},{"SDTMVAR":"RDPERIOD","SDTMDOM":"RAND"},{"SDTMVAR":"RDRAND","SDTMDOM":"IVRS;RAND"},{"SDTMVAR":"RDSEQNB","SDTMDOM":"IVRS;RAND"},{"SDTMVAR":"RDSIDE","SDTMDOM":"IVRS"},{"SDTMVAR":"RDSTRAT1","SDTMDOM":"IVRS;RAND"},{"SDTMVAR":"RDSTRAT2","SDTMDOM":"IVRS;RAND"},{"SDTMVAR":"RDSTRAT3","SDTMDOM":"IVRS;RAND"},{"SDTMVAR":"RDSTRAT4","SDTMDOM":"IVRS;RAND"},{"SDTMVAR":"RDSTRAT5","SDTMDOM":"IVRS;RAND"},{"SDTMVAR":"RDTTCAT","SDTMDOM":"IVRS"},{"SDTMVAR":"RDTTNBX","SDTMDOM":"IVRS"},{"SDTMVAR":"RDVISREF","SDTMDOM":"IVRS"},{"SDTMVAR":"REBLFL","SDTMDOM":"RE"},{"SDTMVAR":"RECAT","SDTMDOM":"RE"},{"SDTMVAR":"REDIR","SDTMDOM":"RE"},{"SDTMVAR":"REDRVFL","SDTMDOM":"RE"},{"SDTMVAR":"REDTC","SDTMDOM":"RE"},{"SDTMVAR":"REDY","SDTMDOM":"RE"},{"SDTMVAR":"REELTM","SDTMDOM":"RE"},{"SDTMVAR":"REEVAL","SDTMDOM":"RE"},{"SDTMVAR":"REEVALID","SDTMDOM":"RE"},{"SDTMVAR":"REF_HIGH","SDTMDOM":"SUPPLB;SUPPLBUS"},{"SDTMVAR":"REF_LOW","SDTMDOM":"SUPPLB;SUPPLBUS"},{"SDTMVAR":"REGRPID","SDTMDOM":"RE"},{"SDTMVAR":"REIRESFL","SDTMDOM":"SUPPRE"},{"SDTMVAR":"RELAT","SDTMDOM":"RE"},{"SDTMVAR":"RELID","SDTMDOM":"RELREC"},{"SDTMVAR":"RELNKGRP","SDTMDOM":"RE"},{"SDTMVAR":"RELNKID","SDTMDOM":"RE"},{"SDTMVAR":"RELOBXFL","SDTMDOM":"RE"},{"SDTMVAR":"RELOC","SDTMDOM":"RE"},{"SDTMVAR":"RELTYPE","SDTMDOM":"RELREC"},{"SDTMVAR":"REMETHOD","SDTMDOM":"RE"},{"SDTMVAR":"REORREF","SDTMDOM":"RE;SUPPRE"},{"SDTMVAR":"REORRES","SDTMDOM":"RE"},{"SDTMVAR":"REORRESU","SDTMDOM":"RE"},{"SDTMVAR":"REPOS","SDTMDOM":"RE"},{"SDTMVAR":"REREASND","SDTMDOM":"RE"},{"SDTMVAR":"REREFID","SDTMDOM":"RE"},{"SDTMVAR":"REREPNUM","SDTMDOM":"RE"},{"SDTMVAR":"RERFTDTC","SDTMDOM":"RE"},{"SDTMVAR":"RESCAT","SDTMDOM":"RE"},{"SDTMVAR":"RESEQ","SDTMDOM":"RE"},{"SDTMVAR":"RESPID","SDTMDOM":"RE"},{"SDTMVAR":"RESTAT","SDTMDOM":"RE"},{"SDTMVAR":"RESTREFC","SDTMDOM":"RE"},{"SDTMVAR":"RESTREFN","SDTMDOM":"RE;SUPPRE"},{"SDTMVAR":"RESTRESC","SDTMDOM":"RE"},{"SDTMVAR":"RESTRESN","SDTMDOM":"RE"},{"SDTMVAR":"RESTRESU","SDTMDOM":"RE"},{"SDTMVAR":"RETEST","SDTMDOM":"RE"},{"SDTMVAR":"RETESTCD","SDTMDOM":"RE"},{"SDTMVAR":"RETPT","SDTMDOM":"RE"},{"SDTMVAR":"RETPTNUM","SDTMDOM":"RE"},{"SDTMVAR":"RETPTREF","SDTMDOM":"RE"},{"SDTMVAR":"RFENDTC","SDTMDOM":"DM"},{"SDTMVAR":"RFICDTC","SDTMDOM":"DM"},{"SDTMVAR":"RFPENDTC","SDTMDOM":"DM"},{"SDTMVAR":"RFSTDTC","SDTMDOM":"DM"},{"SDTMVAR":"RFXENDTC","SDTMDOM":"DM"},{"SDTMVAR":"RFXSTDTC","SDTMDOM":"DM"},{"SDTMVAR":"RPBLFL","SDTMDOM":"RP"},{"SDTMVAR":"RPCAT","SDTMDOM":"RP"},{"SDTMVAR":"RPDRVFL","SDTMDOM":"RP"},{"SDTMVAR":"RPDTC","SDTMDOM":"RP"},{"SDTMVAR":"RPDY","SDTMDOM":"RP"},{"SDTMVAR":"RPGRPID","SDTMDOM":"RP"},{"SDTMVAR":"RPORRES","SDTMDOM":"RP"},{"SDTMVAR":"RPORRESU","SDTMDOM":"RP"},{"SDTMVAR":"RPREASND","SDTMDOM":"RP"},{"SDTMVAR":"RPREFID","SDTMDOM":"RP"},{"SDTMVAR":"RPSCAT","SDTMDOM":"RP"},{"SDTMVAR":"RPSEQ","SDTMDOM":"RP"},{"SDTMVAR":"RPSPID","SDTMDOM":"RP"},{"SDTMVAR":"RPSTAT","SDTMDOM":"RP"},{"SDTMVAR":"RPSTRESC","SDTMDOM":"RP"},{"SDTMVAR":"RPSTRESN","SDTMDOM":"RP"},{"SDTMVAR":"RPSTRESU","SDTMDOM":"RP"},{"SDTMVAR":"RPSUBJID","SDTMDOM":"SUPPDM"},{"SDTMVAR":"RPTEST","SDTMDOM":"RP"},{"SDTMVAR":"RPTESTCD","SDTMDOM":"RP"},{"SDTMVAR":"RSACPTFL","SDTMDOM":"RS"},{"SDTMVAR":"RSBLFL","SDTMDOM":"RS"},{"SDTMVAR":"RSCAT","SDTMDOM":"RS"},{"SDTMVAR":"RSCYCVID","SDTMDOM":"SUPPRS"},{"SDTMVAR":"RSDRVFL","SDTMDOM":"RS"},{"SDTMVAR":"RSDTC","SDTMDOM":"RS"},{"SDTMVAR":"RSDY","SDTMDOM":"RS"},{"SDTMVAR":"RSEVAL","SDTMDOM":"RS"},{"SDTMVAR":"RSEVALID","SDTMDOM":"RS"},{"SDTMVAR":"RSLNKGRP","SDTMDOM":"RS"},{"SDTMVAR":"RSLNKID","SDTMDOM":"RS"},{"SDTMVAR":"RSLOC1","SDTMDOM":"SUPPRS"},{"SDTMVAR":"RSNESP","SDTMDOM":"SUPPRS"},{"SDTMVAR":"RSNL","SDTMDOM":"SUPPRS"},{"SDTMVAR":"RSORRES","SDTMDOM":"RS"},{"SDTMVAR":"RSORRESU","SDTMDOM":"RS"},{"SDTMVAR":"RSRESCAT","SDTMDOM":"RS"},{"SDTMVAR":"RSSEQ","SDTMDOM":"RS"},{"SDTMVAR":"RSSTAT","SDTMDOM":"RS"},{"SDTMVAR":"RSSTRESC","SDTMDOM":"RS"},{"SDTMVAR":"RSSTRESN","SDTMDOM":"RS"},{"SDTMVAR":"RSTEST","SDTMDOM":"RS"},{"SDTMVAR":"RSTESTCD","SDTMDOM":"RS"},{"SDTMVAR":"RSUBJID","SDTMDOM":"APAE;APMH"},{"SDTMVAR":"SAFETY","SDTMDOM":"SUPPDM"},{"SDTMVAR":"SCCAT","SDTMDOM":"SC"},{"SDTMVAR":"SCORRES","SDTMDOM":"SC"},{"SDTMVAR":"SCORRESU","SDTMDOM":"SC"},{"SDTMVAR":"SCSEQ","SDTMDOM":"SC"},{"SDTMVAR":"SCSTRESC","SDTMDOM":"SC"},{"SDTMVAR":"SCSTRESN","SDTMDOM":"SC"},{"SDTMVAR":"SCSTRESU","SDTMDOM":"SC"},{"SDTMVAR":"SCTEST","SDTMDOM":"SC"},{"SDTMVAR":"SCTESTCD","SDTMDOM":"SC"},{"SDTMVAR":"SEENDTC","SDTMDOM":"SE"},{"SDTMVAR":"SEENDY","SDTMDOM":"SE"},{"SDTMVAR":"SESEQ","SDTMDOM":"SE"},{"SDTMVAR":"SESTDTC","SDTMDOM":"SE"},{"SDTMVAR":"SESTDY","SDTMDOM":"SE"},{"SDTMVAR":"SEUPDES","SDTMDOM":"SE"},{"SDTMVAR":"SEX","SDTMDOM":"DM"},{"SDTMVAR":"SITEID","SDTMDOM":"DM"},{"SDTMVAR":"SPDEVID","SDTMDOM":"DE;PF;RE"},{"SDTMVAR":"SRCAT","SDTMDOM":"SR"},{"SDTMVAR":"SRDTC","SDTMDOM":"SR"},{"SDTMVAR":"SRDY","SDTMDOM":"SR"},{"SDTMVAR":"SREL","SDTMDOM":"APAE;APMH"},{"SDTMVAR":"SRELTM","SDTMDOM":"SR"},{"SDTMVAR":"SREVAL","SDTMDOM":"SR"},{"SDTMVAR":"SRGRPID","SDTMDOM":"SR"},{"SDTMVAR":"SRLAT","SDTMDOM":"SR"},{"SDTMVAR":"SRLOC","SDTMDOM":"SR"},{"SDTMVAR":"SRMETHOD","SDTMDOM":"SR"},{"SDTMVAR":"SRNAM","SDTMDOM":"SR"},{"SDTMVAR":"SROBJ","SDTMDOM":"SR"},{"SDTMVAR":"SRORRES","SDTMDOM":"SR"},{"SDTMVAR":"SRORRESU","SDTMDOM":"SR"},{"SDTMVAR":"SRREASND","SDTMDOM":"SR"},{"SDTMVAR":"SRREFID","SDTMDOM":"SR"},{"SDTMVAR":"SRRFTDTC","SDTMDOM":"SR"},{"SDTMVAR":"SRSCAT","SDTMDOM":"SR"},{"SDTMVAR":"SRSEQ","SDTMDOM":"SR"},{"SDTMVAR":"SRSPEC","SDTMDOM":"SR"},{"SDTMVAR":"SRSPID","SDTMDOM":"SR"},{"SDTMVAR":"SRSTAT","SDTMDOM":"SR"},{"SDTMVAR":"SRSTRESC","SDTMDOM":"SR"},{"SDTMVAR":"SRSTRESN","SDTMDOM":"SR"},{"SDTMVAR":"SRSTRESU","SDTMDOM":"SR"},{"SDTMVAR":"SRTEST","SDTMDOM":"SR"},{"SDTMVAR":"SRTESTCD","SDTMDOM":"SR"},{"SDTMVAR":"SRTPT","SDTMDOM":"SR"},{"SDTMVAR":"SRTPTNUM","SDTMDOM":"SR"},{"SDTMVAR":"SRTPTREF","SDTMDOM":"SR"},{"SDTMVAR":"SSDTC","SDTMDOM":"SS"},{"SDTMVAR":"SSDY","SDTMDOM":"SS"},{"SDTMVAR":"SSMTHDCT","SDTMDOM":"SUPPSS"},{"SDTMVAR":"SSMTHOTH","SDTMDOM":"SUPPSS"},{"SDTMVAR":"SSORRES","SDTMDOM":"SS"},{"SDTMVAR":"SSSEQ","SDTMDOM":"SS"},{"SDTMVAR":"SSSTRESC","SDTMDOM":"SS"},{"SDTMVAR":"SSTEST","SDTMDOM":"SS"},{"SDTMVAR":"SSTESTCD","SDTMDOM":"SS"},{"SDTMVAR":"STRATUM","SDTMDOM":"SUPPDM"},{"SDTMVAR":"STRATUM2","SDTMDOM":"SUPPDM"},{"SDTMVAR":"STRATUM3","SDTMDOM":"SUPPDM"},{"SDTMVAR":"STRATUM4","SDTMDOM":"SUPPDM"},{"SDTMVAR":"STRATUM5","SDTMDOM":"SUPPDM"},{"SDTMVAR":"STUDYID","SDTMDOM":"AE;AG;APAE;APMH;CC;CCLN;CE;CI;CM;CO;CV;DA;DD;DE;DM;DS;DV;EC;EG;EX;FA;FAAE;FACE;FAPR;FARS;FT;HO;IE;IS;IVRS;LB;LBUS;LDV;MH;MI;MK;ML;MO;NV;OE;PC;PE;PF;PP;PR;QS;QSCQ;QSEG;QSKN;QSPI;QSMR;RAND;RE;RELREC;RP;RS;SC;SE;SR;SS;SU;SV;TA;TD;TE;TI;TR;TS;TU;TV;VS"},{"SDTMVAR":"SUBJID","SDTMDOM":"DM"},{"SDTMVAR":"SUCAT","SDTMDOM":"SU"},{"SDTMVAR":"SUDOSE","SDTMDOM":"SU"},{"SDTMVAR":"SUDOSFRQ","SDTMDOM":"SU"},{"SDTMVAR":"SUDOSTXT","SDTMDOM":"SU"},{"SDTMVAR":"SUDOSU","SDTMDOM":"SU"},{"SDTMVAR":"SUDUR","SDTMDOM":"SU"},{"SDTMVAR":"SUENDTC","SDTMDOM":"SU"},{"SDTMVAR":"SUENDY","SDTMDOM":"SU"},{"SDTMVAR":"SUENRTPT","SDTMDOM":"SU"},{"SDTMVAR":"SUENTPT","SDTMDOM":"SU"},{"SDTMVAR":"SUNCF","SDTMDOM":"SUPPSU"},{"SDTMVAR":"SUOCCUR","SDTMDOM":"SU"},{"SDTMVAR":"SUPRESP","SDTMDOM":"SU"},{"SDTMVAR":"SUSEQ","SDTMDOM":"SU"},{"SDTMVAR":"SUSTDTC","SDTMDOM":"SU"},{"SDTMVAR":"SUSTDY","SDTMDOM":"SU"},{"SDTMVAR":"SUSTRTPT","SDTMDOM":"SU"},{"SDTMVAR":"SUSTTPT","SDTMDOM":"SU"},{"SDTMVAR":"SUTRT","SDTMDOM":"SU"},{"SDTMVAR":"SVENDTC","SDTMDOM":"SV"},{"SDTMVAR":"SVENDY","SDTMDOM":"SV"},{"SDTMVAR":"SVMTHDCT","SDTMDOM":"SUPPSV"},{"SDTMVAR":"SVSTDTC","SDTMDOM":"SV"},{"SDTMVAR":"SVSTDY","SDTMDOM":"SV"},{"SDTMVAR":"SVUPDES","SDTMDOM":"SV"},{"SDTMVAR":"TABRANCH","SDTMDOM":"TA"},{"SDTMVAR":"TAETORD","SDTMDOM":"RE;SE;TA"},{"SDTMVAR":"TATRANS","SDTMDOM":"TA"},{"SDTMVAR":"TDANCVAR","SDTMDOM":"TD"},{"SDTMVAR":"TDMAXPAI","SDTMDOM":"TD"},{"SDTMVAR":"TDMINPAI","SDTMDOM":"TD"},{"SDTMVAR":"TDNUMRPT","SDTMDOM":"TD"},{"SDTMVAR":"TDORDER","SDTMDOM":"TD"},{"SDTMVAR":"TDSTOFF","SDTMDOM":"TD"},{"SDTMVAR":"TDTGTPAI","SDTMDOM":"TD"},{"SDTMVAR":"TEDUR","SDTMDOM":"TE"},{"SDTMVAR":"TEENRL","SDTMDOM":"TE"},{"SDTMVAR":"TESTRL","SDTMDOM":"TE"},{"SDTMVAR":"TIRL","SDTMDOM":"TI"},{"SDTMVAR":"TIVERS","SDTMDOM":"TI"},{"SDTMVAR":"TRACPTFL","SDTMDOM":"TR"},{"SDTMVAR":"TRBLFL","SDTMDOM":"TR"},{"SDTMVAR":"TRCYCVID","SDTMDOM":"SUPPTR"},{"SDTMVAR":"TRDRVFL","SDTMDOM":"TR"},{"SDTMVAR":"TRDTC","SDTMDOM":"TR"},{"SDTMVAR":"TRDY","SDTMDOM":"TR"},{"SDTMVAR":"TREVAL","SDTMDOM":"TR"},{"SDTMVAR":"TREVALID","SDTMDOM":"TR"},{"SDTMVAR":"TRGRPID","SDTMDOM":"TR"},{"SDTMVAR":"TRLNKID","SDTMDOM":"TR"},{"SDTMVAR":"TRMETHOD","SDTMDOM":"TR"},{"SDTMVAR":"TRMETOTH","SDTMDOM":"SUPPTR"},{"SDTMVAR":"TRORRES","SDTMDOM":"TR"},{"SDTMVAR":"TRORRESU","SDTMDOM":"TR"},{"SDTMVAR":"TRSEQ","SDTMDOM":"TR"},{"SDTMVAR":"TRSPID","SDTMDOM":"TR"},{"SDTMVAR":"TRSTAT","SDTMDOM":"TR"},{"SDTMVAR":"TRSTRESC","SDTMDOM":"TR"},{"SDTMVAR":"TRSTRESN","SDTMDOM":"TR"},{"SDTMVAR":"TRSTRESU","SDTMDOM":"TR"},{"SDTMVAR":"TRTA","SDTMDOM":"SUPPEX"},{"SDTMVAR":"TRTEST","SDTMDOM":"TR"},{"SDTMVAR":"TRTESTCD","SDTMDOM":"TR"},{"SDTMVAR":"TRTLST","SDTMDOM":"SUPPAE"},{"SDTMVAR":"TSGRPID","SDTMDOM":"TS"},{"SDTMVAR":"TSPARM","SDTMDOM":"TS"},{"SDTMVAR":"TSPARMCD","SDTMDOM":"TS"},{"SDTMVAR":"TSSEQ","SDTMDOM":"TS"},{"SDTMVAR":"TSVAL","SDTMDOM":"TS"},{"SDTMVAR":"TSVALCD","SDTMDOM":"TS"},{"SDTMVAR":"TSVALNF","SDTMDOM":"TS"},{"SDTMVAR":"TSVCDREF","SDTMDOM":"TS"},{"SDTMVAR":"TSVCDVER","SDTMDOM":"TS"},{"SDTMVAR":"TUACPTFL","SDTMDOM":"TU"},{"SDTMVAR":"TUCYCVID","SDTMDOM":"SUPPTU"},{"SDTMVAR":"TUDTC","SDTMDOM":"TU"},{"SDTMVAR":"TUDY","SDTMDOM":"TU"},{"SDTMVAR":"TUEVAL","SDTMDOM":"TU"},{"SDTMVAR":"TUEVALID","SDTMDOM":"TU"},{"SDTMVAR":"TUGRPID","SDTMDOM":"TU"},{"SDTMVAR":"TULNKID","SDTMDOM":"TU"},{"SDTMVAR":"TULOC","SDTMDOM":"TU"},{"SDTMVAR":"TULOCDTL","SDTMDOM":"SUPPTU"},{"SDTMVAR":"TUMETHOD","SDTMDOM":"TU"},{"SDTMVAR":"TUMETOTH","SDTMDOM":"SUPPTU"},{"SDTMVAR":"TUNAM","SDTMDOM":"TU"},{"SDTMVAR":"TUORRES","SDTMDOM":"TU"},{"SDTMVAR":"TUSEQ","SDTMDOM":"TU"},{"SDTMVAR":"TUSTRESC","SDTMDOM":"TU"},{"SDTMVAR":"TUTEST","SDTMDOM":"TU"},{"SDTMVAR":"TUTESTCD","SDTMDOM":"TU"},{"SDTMVAR":"TVENRL","SDTMDOM":"TV"},{"SDTMVAR":"TVSTRL","SDTMDOM":"TV"},{"SDTMVAR":"USUBJID","SDTMDOM":"AE;AG;CC;CCLN;CE;CI;CM;CO;CV;DA;DD;DE;DM;DS;DV;EC;EG;EX;FA;FAAE;FACE;FAPR;FARS;FT;HO;IE;IS;IVRS;LB;LBUS;LDV;MH;MI;MK;ML;MO;NV;OE;PC;PE;PF;PP;PR;QS;QSCQ;QSEG;QSKN;QSPI;QSMR;RAND;RE;RELREC;RP;RS;SC;SE;SR;SS;SU;SV;TR;TU;VS"},{"SDTMVAR":"VISIT","SDTMDOM":"AG;CC;CCLN;CE;CM;CO;CV;DA;DD;DE;DS;DV;EC;EG;EX;FA;FAAE;FACE;FAPR;FARS;FT;HO;IE;IS;LB;LBUS;LDV;MH;MI;MK;ML;MO;NV;OE;PC;PE;PF;PR;QS;QSCQ;QSEG;QSKN;QSPI;QSMR;RE;RP;RS;SR;SS;SU;SV;TR;TU;TV;VS"},{"SDTMVAR":"VISITDY","SDTMDOM":"AG;CC;CCLN;CE;CM;CO;CV;DA;DD;DE;DS;DV;EC;EG;EX;FA;FAAE;FACE;FAPR;FARS;FT;IE;IS;LB;LBUS;LDV;MH;MI;MK;ML;MO;NV;OE;PC;PE;PF;PR;QS;QSCQ;QSEG;QSKN;QSPI;QSMR;RE;RP;RS;SR;SS;SU;SV;TR;TU;TV;VS"},{"SDTMVAR":"VISITNUM","SDTMDOM":"AG;CC;CCLN;CE;CM;CO;CV;DA;DD;DE;DS;DV;EC;EG;EX;FA;FAAE;FACE;FAPR;FARS;FT;HO;IE;IS;IVRS;LB;LBUS;LDV;MH;MI;MK;ML;MO;NV;OE;PC;PE;PF;PR;QS;QSCQ;QSEG;QSKN;QSPI;QSMR;RE;RP;RS;SR;SS;SU;SV;TR;TU;TV;VS"},{"SDTMVAR":"VSAENO","SDTMDOM":"SUPPVS"},{"SDTMVAR":"VSBLFL","SDTMDOM":"VS"},{"SDTMVAR":"VSCAT","SDTMDOM":"VS"},{"SDTMVAR":"VSCLSIG","SDTMDOM":"SUPPVS"},{"SDTMVAR":"VSDRVFL","SDTMDOM":"VS"},{"SDTMVAR":"VSDTC","SDTMDOM":"VS"},{"SDTMVAR":"VSDY","SDTMDOM":"VS"},{"SDTMVAR":"VSELTM","SDTMDOM":"VS"},{"SDTMVAR":"VSLNKID","SDTMDOM":"VS"},{"SDTMVAR":"VSLOC","SDTMDOM":"VS"},{"SDTMVAR":"VSMETHOD","SDTMDOM":"VS"},{"SDTMVAR":"VSORRES","SDTMDOM":"VS"},{"SDTMVAR":"VSORRESU","SDTMDOM":"VS"},{"SDTMVAR":"VSPOS","SDTMDOM":"VS"},{"SDTMVAR":"VSRFTDTC","SDTMDOM":"VS"},{"SDTMVAR":"VSSEQ","SDTMDOM":"VS"},{"SDTMVAR":"VSSTAT","SDTMDOM":"VS"},{"SDTMVAR":"VSSTPT","SDTMDOM":"SUPPVS"},{"SDTMVAR":"VSSTRESC","SDTMDOM":"VS"},{"SDTMVAR":"VSSTRESN","SDTMDOM":"VS"},{"SDTMVAR":"VSSTRESU","SDTMDOM":"VS"},{"SDTMVAR":"VSTEST","SDTMDOM":"VS"},{"SDTMVAR":"VSTESTCD","SDTMDOM":"VS"},{"SDTMVAR":"VSTPT","SDTMDOM":"VS"},{"SDTMVAR":"VSTPTNUM","SDTMDOM":"VS"},{"SDTMVAR":"VSTPTREF","SDTMDOM":"VS"}]