[{
        "CDASHVAR": "SUBJID",
        "SDTMVAR": "SUBJID;COUNTRY",
        "SDTMDOM": "DM"
    }, {
        "CDASHVAR": "VISDAT",
        "SDTMVAR": "SVSTDTC;SVENDTC",
        "SDTMDOM": "SV"
    }, {
        "CDASHVAR": "BRTHDAT",
        "SDTMVAR": "BRTHDTC",
        "SDTMDOM": "DM"
    }, {
        "CDASHVAR": "AGE",
        "SDTMVAR": "AGE",
        "SDTMDOM": "DM"
    }, {
        "CDASHVAR": "AGEU",
        "SDTMVAR": "AGEU",
        "SDTMDOM": "DM"
    }, {
        "CDASHVAR": "SEX",
        "SDTMVAR": "SEX",
        "SDTMDOM": "DM"
    }, {
        "CDASHVAR": "ETHNIC",
        "SDTMVAR": "ETHNIC",
        "SDTMDOM": "DM"
    }, {
        "CDASHVAR": "RAIAN",
        "SDTMVAR": "RACE",
        "SDTMDOM": "DM"
    }, {
        "CDASHVAR": "RASIAN",
        "SDTMVAR": "RACE",
        "SDTMDOM": "DM"
    }, {
        "CDASHVAR": "RBLACK",
        "SDTMVAR": "RACE",
        "SDTMDOM": "DM"
    }, {
        "CDASHVAR": "RNHOPI",
        "SDTMVAR": "RACE",
        "SDTMDOM": "DM"
    }, {
        "CDASHVAR": "RWHITE",
        "SDTMVAR": "RACE",
        "SDTMDOM": "DM"
    }, {
        "CDASHVAR": "RNREP",
        "SDTMVAR": "RACE",
        "SDTMDOM": "DM"
    }, {
        "CDASHVAR": "RUNK",
        "SDTMVAR": "RACE",
        "SDTMDOM": "DM"
    }, {
        "CDASHVAR": "DSPRSTUD",
        "SDTMVAR": "DSPRSTUD",
        "SDTMDOM": "DM"
    }, {
        "CDASHVAR": "DSPRSUBJ",
        "SDTMVAR": "DSPRSUBJ",
        "SDTMDOM": "DM"
    }, {
        "CDASHVAR": "DSDECOD_INFCST",
        "SDTMVAR": "DSDECOD",
        "SDTMDOM": "DS"
    }, {
        "CDASHVAR": "DSTERM",
        "SDTMVAR": "DSTERM",
        "SDTMDOM": "DS"
    }, {
        "CDASHVAR": "DSSTDAT",
        "SDTMVAR": "DSDTC;RFICDTC",
        "SDTMDOM": "DS;DM"
    }, {
        "CDASHVAR": "DSSTDAT",
        "SDTMVAR": "DSSTDTC",
        "SDTMDOM": "DS"
    }, {
        "CDASHVAR": "MHCAT",
        "SDTMVAR": "MHCAT",
        "SDTMDOM": "MH"
    }, {
        "CDASHVAR": "MHSPID",
        "SDTMVAR": "MHSPID",
        "SDTMDOM": "MH"
    }, {
        "CDASHVAR": "MHPRESP",
        "SDTMVAR": "MHPRESP",
        "SDTMDOM": "MH"
    }, {
        "CDASHVAR": "MHTERM",
        "SDTMVAR": "MHTERM",
        "SDTMDOM": "MH"
    }, {
        "CDASHVAR": "MHOCCUR",
        "SDTMVAR": "MHOCCUR",
        "SDTMDOM": "MH"
    }, {
        "CDASHVAR": "MHSTDAT",
        "SDTMVAR": "MHSTDTC",
        "SDTMDOM": "MH"
    }, {
        "CDASHVAR": "MHONGO",
        "SDTMVAR": "MHENRTPT",
        "SDTMDOM": "MH"
    }, {
        "CDASHVAR": "MHENDAT",
        "SDTMVAR": "MHENDTC",
        "SDTMDOM": "MH"
    }, {
        "CDASHVAR": "SUTRT",
        "SDTMVAR": "SUTRT;SUPRESP",
        "SDTMDOM": "SU"
    }, {
        "CDASHVAR": "SUNCF",
        "SDTMVAR": "SUNCF;SUOCCUR",
        "SDTMDOM": "SU"
    }, {
        "CDASHVAR": "SUDSTXT",
        "SDTMVAR": "SUDOSTXT;SUDOSE",
        "SDTMDOM": "SU"
    }, {
        "CDASHVAR": "SUDOSU",
        "SDTMVAR": "SUDOSU",
        "SDTMDOM": "SU"
    }, {
        "CDASHVAR": "SUDOSFRQ",
        "SDTMVAR": "SUDOSFRQ",
        "SDTMDOM": "SU"
    }, {
        "CDASHVAR": "SUSTDAT",
        "SDTMVAR": "SUSTDTC",
        "SDTMDOM": "SU"
    }, {
        "CDASHVAR": "SUENDAT",
        "SDTMVAR": "SUENDTC",
        "SDTMDOM": "SU"
    }, {
        "CDASHVAR": "SUCDUR",
        "SDTMVAR": "SUDUR",
        "SDTMDOM": "SU"
    }, {
        "CDASHVAR": "SUDOSFRQ_SU_ALC",
        "SDTMVAR": "SUDOSFRQ;SUOCCUR",
        "SDTMDOM": "SU"
    }, {
        "CDASHVAR": "SUDSTXT_SU_ALC",
        "SDTMVAR": "SUDOSTXT",
        "SDTMDOM": "SU"
    }, {
        "CDASHVAR": "CMCAT",
        "SDTMVAR": "CMCAT",
        "SDTMDOM": "CM"
    }, {
        "CDASHVAR": "CMSCAT",
        "SDTMVAR": "CMSCAT",
        "SDTMDOM": "CM"
    }, {
        "CDASHVAR": "CMPRESP",
        "SDTMVAR": "CMPRESP",
        "SDTMDOM": "CM"
    }, {
        "CDASHVAR": "CMSPID",
        "SDTMVAR": "CMSPID",
        "SDTMDOM": "CM"
    }, {
        "CDASHVAR": "CMOCCUR",
        "SDTMVAR": "CMOCCUR;CMSTAT",
        "SDTMDOM": "CM"
    }, {
        "CDASHVAR": "CMTRT",
        "SDTMVAR": "CMTRT",
        "SDTMDOM": "CM"
    }, {
        "CDASHVAR": "CMSTDAT",
        "SDTMVAR": "CMSTDTC",
        "SDTMDOM": "CM"
    }, {
        "CDASHVAR": "CMONGO",
        "SDTMVAR": "CMENRTPT",
        "SDTMDOM": "CM"
    }, {
        "CDASHVAR": "CMENDAT",
        "SDTMVAR": "CMENDTC",
        "SDTMDOM": "CM"
    }, {
        "CDASHVAR": "CMDOSTOT",
        "SDTMVAR": "CMDOSTOT",
        "SDTMDOM": "CM"
    }, {
        "CDASHVAR": "CMDOSU",
        "SDTMVAR": "CMDOSU",
        "SDTMDOM": "CM"
    }, {
        "CDASHVAR": "CMROUTE",
        "SDTMVAR": "CMROUTE",
        "SDTMDOM": "CM"
    }, {
        "CDASHVAR": "CMRESTRT",
        "SDTMVAR": "CMRESTRT",
        "SDTMDOM": "CM"
    }, {
        "CDASHVAR": "SSDAT",
        "SDTMVAR": "SSDTC;DSSTDTC",
        "SDTMDOM": "SS"
    }, {
        "CDASHVAR": "SSORRES",
        "SDTMVAR": "SSORRES;SSSTRESC;DSTERM",
        "SDTMDOM": "SS;SS;DS"
    }, {
        "CDASHVAR": "SSMTHDCT",
        "SDTMVAR": "SSMTHDCT;DSMETHOD",
        "SDTMDOM": "SS;DS"
    }, {
        "CDASHVAR": "SSMTHDSP",
        "SDTMVAR": "SSMTHOTH;DSMTHOTH",
        "SDTMDOM": "SS;DS"
    }, {
        "CDASHVAR": "VSPERF",
        "SDTMVAR": "VSSTAT",
        "SDTMDOM": "VS"
    }, {
        "CDASHVAR": "VSDAT",
        "SDTMVAR": "VSDTC",
        "SDTMDOM": "VS"
    }, {
        "CDASHVAR": "VSTIM",
        "SDTMVAR": "VSDTC",
        "SDTMDOM": "VS"
    }, {
        "CDASHVAR": "VSHGHT",
        "SDTMVAR": "VSORRES;VSSTRESC;VSSTRESN",
        "SDTMDOM": "VS"
    }, {
        "CDASHVAR": "VSHGHTU",
        "SDTMVAR": "VSORRESU;VSSTRESU",
        "SDTMDOM": "VS"
    }, {
        "CDASHVAR": "VSLOC_LOC_10",
        "SDTMVAR": "VSLOC",
        "SDTMDOM": "VS"
    }, {
        "CDASHVAR": "VSSTPT",
        "SDTMVAR": "VSSTPT",
        "SDTMDOM": "VS"
    }, {
        "CDASHVAR": "VSPOS",
        "SDTMVAR": "VSPOS",
        "SDTMDOM": "VS"
    }, {
        "CDASHVAR": "VSTEST",
        "SDTMVAR": "VSTEST",
        "SDTMDOM": "VS"
    }, {
        "CDASHVAR": "VSTESTCD",
        "SDTMVAR": "VSTESTCD",
        "SDTMDOM": "VS"
    }, {
        "CDASHVAR": "VSSTAT",
        "SDTMVAR": "VSSTAT",
        "SDTMDOM": "VS"
    }, {
        "CDASHVAR": "VSORRES",
        "SDTMVAR": "VSORRES;VSSTRESC;VSSTRESN",
        "SDTMDOM": "VS"
    }, {
        "CDASHVAR": "VSORRESU",
        "SDTMVAR": "VSORRESU;VSSTRESU\n",
        "SDTMDOM": "VS"
    }, {
        "CDASHVAR": "VSCLSIG",
        "SDTMVAR": "VSCLSIG",
        "SDTMDOM": "VS"
    }, {
        "CDASHVAR": "VSAENO",
        "SDTMVAR": "VSAENO",
        "SDTMDOM": "VS"
    }, {
        "CDASHVAR": "VSBSA",
        "SDTMVAR": "VSORRES;VSSTRESC;VSSTRESN;VSDRVFL",
        "SDTMDOM": "VS"
    }, {
        "CDASHVAR": "VSBSAU",
        "SDTMVAR": "VSORRESU;VSSTRESU\n",
        "SDTMDOM": "VS"
    }, {
        "CDASHVAR": "EGMETHOD",
        "SDTMVAR": "EGMETHOD",
        "SDTMDOM": "EG"
    }, {
        "CDASHVAR": "EGTPT",
        "SDTMVAR": "EGTPT",
        "SDTMDOM": "EG"
    }, {
        "CDASHVAR": "EGTPTNUM",
        "SDTMVAR": "EGTPTNUM",
        "SDTMDOM": "EG"
    }, {
        "CDASHVAR": "EGSPID",
        "SDTMVAR": "EGSPID",
        "SDTMDOM": "EG"
    }, {
        "CDASHVAR": "EGCLSIG",
        "SDTMVAR": "EGCLSIG",
        "SDTMDOM": "EG"
    }, {
        "CDASHVAR": "EGAENO",
        "SDTMVAR": "EGAENO",
        "SDTMDOM": "EG"
    }, {
        "CDASHVAR": "EGPOS",
        "SDTMVAR": "EGPOS",
        "SDTMDOM": "EG"
    }, {
        "CDASHVAR": "EGDAT",
        "SDTMVAR": "EGDTC",
        "SDTMDOM": "EG"
    }, {
        "CDASHVAR": "EGTIM",
        "SDTMVAR": "EGDTC",
        "SDTMDOM": "EG"
    }, {
        "CDASHVAR": "EGINTP",
        "SDTMVAR": "EGORRES;EGSTRESC",
        "SDTMDOM": "EG"
    }, {
        "CDASHVAR": "EGFIND",
        "SDTMVAR": "EGORRES;EGSTRESC",
        "SDTMDOM": "EG"
    }, {
        "CDASHVAR": "EGTEST",
        "SDTMVAR": "EGTEST",
        "SDTMDOM": "EG"
    }, {
        "CDASHVAR": "EGTESTCD",
        "SDTMVAR": "EGTESTCD",
        "SDTMDOM": "EG"
    }, {
        "CDASHVAR": "EGSTAT",
        "SDTMVAR": "EGSTAT",
        "SDTMDOM": "EG"
    }, {
        "CDASHVAR": "EGORRES",
        "SDTMVAR": "EGORRES;EGSTRESC;EGSTRESN",
        "SDTMDOM": "EG"
    }, {
        "CDASHVAR": "EGORRESU",
        "SDTMVAR": "EGORRESU;EGSTRESU",
        "SDTMDOM": "EG"
    }, {
        "CDASHVAR": "EGORUSP",
        "SDTMVAR": "EGORRESU;EGSTRESU",
        "SDTMDOM": "EG"
    }, {
        "CDASHVAR": "LBCAT",
        "SDTMVAR": "LBCAT",
        "SDTMDOM": "Pending"
    }, {
        "CDASHVAR": "LBRANTYP",
        "SDTMVAR": "LBRANTYP",
        "SDTMDOM": "Pending"
    }, {
        "CDASHVAR": "LBSPEC",
        "SDTMVAR": "LBSPEC",
        "SDTMDOM": "Pending"
    }, {
        "CDASHVAR": "LBTPT",
        "SDTMVAR": "LBTPT",
        "SDTMDOM": "Pending"
    }, {
        "CDASHVAR": "LBTPTNUM",
        "SDTMVAR": "LBTPTNUM",
        "SDTMDOM": "Pending"
    }, {
        "CDASHVAR": "LBDAT",
        "SDTMVAR": "LBDTC",
        "SDTMDOM": "Pending"
    }, {
        "CDASHVAR": "LBTIM",
        "SDTMVAR": "LBDTC",
        "SDTMDOM": "Pending"
    }, {
        "CDASHVAR": "LBCOND",
        "SDTMVAR": "LBCOND",
        "SDTMDOM": "Pending"
    }, {
        "CDASHVAR": "LBMETHOD",
        "SDTMVAR": "LBMETHOD",
        "SDTMDOM": "Pending"
    }, {
        "CDASHVAR": "LBSCAT",
        "SDTMVAR": "LBSCAT",
        "SDTMDOM": "Pending"
    }, {
        "CDASHVAR": "LBTEST",
        "SDTMVAR": "LBTEST",
        "SDTMDOM": "Pending"
    }, {
        "CDASHVAR": "LBORRES_LBQUAL",
        "SDTMVAR": "LBORRES",
        "SDTMDOM": "Pending"
    }, {
        "CDASHVAR": "LBSTAT",
        "SDTMVAR": "LBSTAT",
        "SDTMDOM": "Pending"
    }, {
        "CDASHVAR": "LBORRES",
        "SDTMVAR": "LBORRES",
        "SDTMDOM": "Pending"
    }, {
        "CDASHVAR": "LBORRESU",
        "SDTMVAR": "LBORRESU",
        "SDTMDOM": "Pending"
    }, {
        "CDASHVAR": "EXDSNTTK",
        "SDTMVAR": "ECOCCUR;ECPRESP",
        "SDTMDOM": "EC"
    }, {
        "CDASHVAR": "EXSTDAT",
        "SDTMVAR": "ECSTDTC;EXSTDTC",
        "SDTMDOM": "EC;EX"
    }, {
        "CDASHVAR": "EXENDAT",
        "SDTMVAR": "ECSTDTC;EXSTDTC",
        "SDTMDOM": "EC;EX"
    }, {
        "CDASHVAR": "EXPDOSEU",
        "SDTMVAR": "ECDOSEU",
        "SDTMDOM": "EC"
    }, {
        "CDASHVAR": "EXDOSU",
        "SDTMVAR": "ECDOSU;EXDOSU",
        "SDTMDOM": "EC;EX"
    }, {
        "CDASHVAR": "EXROUTE",
        "SDTMVAR": "ECROUTE;EXROUTE",
        "SDTMDOM": "EC;EX"
    }, {
        "CDASHVAR": "EXPERIOD",
        "SDTMVAR": "ECPERIOD;EXPERIOD",
        "SDTMDOM": "EC;EX"
    }, {
        "CDASHVAR": "EXENTPT",
        "SDTMVAR": "ECENTPT;EXENTPT",
        "SDTMDOM": "EC;EX"
    }, {
        "CDASHVAR": "EXTRT",
        "SDTMVAR": "ECTRT;EXTRT",
        "SDTMDOM": "EC;EX"
    }, {
        "CDASHVAR": "EXCAT",
        "SDTMVAR": "ECCAT;EXCAT",
        "SDTMDOM": "EC;EX"
    }, {
        "CDASHVAR": "EXTPT",
        "SDTMVAR": "ECTPT;EXTPT",
        "SDTMDOM": "EC;EX"
    }, {
        "CDASHVAR": "EXTPTNUM",
        "SDTMVAR": "ECTPTNUM;EXTPTNUM",
        "SDTMDOM": "EC;EX"
    }, {
        "CDASHVAR": "EXETPTNM",
        "SDTMVAR": "ECETPTNM;EXETPTNM",
        "SDTMDOM": "EC;EX"
    }, {
        "CDASHVAR": "EXREFID",
        "SDTMVAR": "ECREFID;EXREFID",
        "SDTMDOM": "EC;EX"
    }, {
        "CDASHVAR": "EXRFID2",
        "SDTMVAR": "ECREFID2;EXREFID2",
        "SDTMDOM": "EC;EX"
    }, {
        "CDASHVAR": "EXRFID3",
        "SDTMVAR": "ECREFID3;EXREFID3",
        "SDTMDOM": "EC;EX"
    }, {
        "CDASHVAR": "EXRFID4",
        "SDTMVAR": "ECREFID4;EXREFID4",
        "SDTMDOM": "EC;EX"
    }, {
        "CDASHVAR": "EXRFID5",
        "SDTMVAR": "ECREFID5;EXREFID5",
        "SDTMDOM": "EC;EX"
    }, {
        "CDASHVAR": "EXPDOST",
        "SDTMVAR": "ECDOSE;ECDOSFRQ",
        "SDTMDOM": "EC"
    }, {
        "CDASHVAR": "EXDOSTOT",
        "SDTMVAR": "ECDOSE;ECDOSFRQ;EXDOSE;EXDOSFRQ",
        "SDTMDOM": "EC;EC;EX;EX"
    }, {
        "CDASHVAR": "EXPDOSE",
        "SDTMVAR": "ECDOSE",
        "SDTMDOM": "EC"
    }, {
        "CDASHVAR": "EXDOSADJ",
        "SDTMVAR": "ECDOSADJ;EXDOSADJ",
        "SDTMDOM": "EC;EX"
    }, {
        "CDASHVAR": "EXSTDAY",
        "SDTMVAR": "ECSTDAY;EXSTDAY",
        "SDTMDOM": "EC;EX"
    }, {
        "CDASHVAR": "EXENDAY",
        "SDTMVAR": "ECENDAY;EXENDAY",
        "SDTMDOM": "EC;EX"
    }, {
        "CDASHVAR": "EXSTTIM",
        "SDTMVAR": "ECSTDTC;EXSTDTC",
        "SDTMDOM": "EC;EX"
    }, {
        "CDASHVAR": "EXENDAT",
        "SDTMVAR": "ECENDTC;EXENDTC",
        "SDTMDOM": "EC;EX"
    }, {
        "CDASHVAR": "EXENTIM",
        "SDTMVAR": "ECENDTC;EXENDTC",
        "SDTMDOM": "EC;EX"
    }, {
        "CDASHVAR": "EXDSTXT",
        "SDTMVAR": "ECDOSE;ECDOSTXT;EXDOSE;EXDOSTXT",
        "SDTMDOM": "EC;EC;EX;EX"
    }, {
        "CDASHVAR": "IEVERS",
        "SDTMVAR": "IEVERS",
        "SDTMDOM": "IE"
    }, {
        "CDASHVAR": "IECAT",
        "SDTMVAR": "IECAT;IEORRES;IESTRESC",
        "SDTMDOM": "IE"
    }, {
        "CDASHVAR": "IETESTCD",
        "SDTMVAR": "IETESTCD",
        "SDTMDOM": "IE"
    }, {
        "CDASHVAR": "EPOCH",
        "SDTMVAR": "EPOCH",
        "SDTMDOM": "DS"
    }, {
        "CDASHVAR": "DSCAT",
        "SDTMVAR": "DSCAT",
        "SDTMDOM": "DS"
    }, {
        "CDASHVAR": "DSSTDAT",
        "SDTMVAR": "DSDTC",
        "SDTMDOM": "DS"
    }, {
        "CDASHVAR": "DSCONT",
        "SDTMVAR": "DSCONT;DSDECOD",
        "SDTMDOM": "DS"
    }, {
        "CDASHVAR": "DSNEXT",
        "SDTMVAR": "DSNEXT",
        "SDTMDOM": "DS"
    }, {
        "CDASHVAR": "DSSCAT",
        "SDTMVAR": "DSSCAT",
        "SDTMDOM": "DS"
    }, {
        "CDASHVAR": "DSDECOD_NCOMPLT_03",
        "SDTMVAR": "DSDECOD;DSTERM",
        "SDTMDOM": "DS"
    }, {
        "CDASHVAR": "DSDECOD_NCOMPLT_TS04",
        "SDTMVAR": "DSDECOD;DSTERM",
        "SDTMDOM": "DS"
    }, {
        "CDASHVAR": "DSSUBREA",
        "SDTMVAR": "DSTERM",
        "SDTMDOM": "DS"
    }, {
        "CDASHVAR": "DSAENO",
        "SDTMVAR": "DSAENO",
        "SDTMDOM": "DS"
    }, {
        "CDASHVAR": "DSBKWHO",
        "SDTMVAR": "DSBKWHO",
        "SDTMDOM": "DS"
    }, {
        "CDASHVAR": "DSBKMETH",
        "SDTMVAR": "DSBKMETH",
        "SDTMDOM": "DS"
    }, {
        "CDASHVAR": "DSSTTIM",
        "SDTMVAR": "DSSTDTC",
        "SDTMDOM": "DS"
    }, {
        "CDASHVAR": "DSDECOD_DSCBBRKR",
        "SDTMVAR": "DSTERM",
        "SDTMDOM": "DS"
    }, {
        "CDASHVAR": "DSBKAENO",
        "SDTMVAR": "DSBKAENO",
        "SDTMDOM": "DS"
    }, {
        "CDASHVAR": "DSBKAEN2",
        "SDTMVAR": "DSBKAEN2",
        "SDTMDOM": "DS"
    }, {
        "CDASHVAR": "DSBKAEN3",
        "SDTMVAR": "DSBKAEN3",
        "SDTMDOM": "DS"
    }, {
        "CDASHVAR": "DSBKTRT",
        "SDTMVAR": "DSBKTRT",
        "SDTMDOM": "DS"
    }, {
        "CDASHVAR": "DSBKTRT2",
        "SDTMVAR": "DSBKTRT2",
        "SDTMDOM": "DS"
    }, {
        "CDASHVAR": "DSBKTRT3",
        "SDTMVAR": "DSBKTRT3",
        "SDTMDOM": "DS"
    }, {
        "CDASHVAR": "AECAT",
        "SDTMVAR": "AECAT",
        "SDTMDOM": "AE"
    }, {
        "CDASHVAR": "AESPID",
        "SDTMVAR": "AEREFID",
        "SDTMDOM": "AE"
    }, {
        "CDASHVAR": "AETERM",
        "SDTMVAR": "AETERM",
        "SDTMDOM": "AE"
    }, {
        "CDASHVAR": "AEDLT",
        "SDTMVAR": "AEDLT",
        "SDTMDOM": "AE"
    }, {
        "CDASHVAR": "AESIIN",
        "SDTMVAR": "AESIIN",
        "SDTMDOM": "AE"
    }, {
        "CDASHVAR": "AESER",
        "SDTMVAR": "AESER",
        "SDTMDOM": "AE"
    }, {
        "CDASHVAR": "AESERDAT",
        "SDTMVAR": "AESERDTC",
        "SDTMDOM": "AE"
    }, {
        "CDASHVAR": "AESCONG",
        "SDTMVAR": "AESCONG",
        "SDTMDOM": "AE"
    }, {
        "CDASHVAR": "AESDISAB",
        "SDTMVAR": "AESDISAB",
        "SDTMDOM": "AE"
    }, {
        "CDASHVAR": "AESDTH",
        "SDTMVAR": "AESDTH",
        "SDTMDOM": "AE"
    }, {
        "CDASHVAR": "AESHOSP",
        "SDTMVAR": "AESHOSP",
        "SDTMDOM": "AE"
    }, {
        "CDASHVAR": "AESLIFE",
        "SDTMVAR": "AESLIFE",
        "SDTMDOM": "AE"
    }, {
        "CDASHVAR": "AESMIE",
        "SDTMVAR": "AESMIE",
        "SDTMDOM": "AE"
    }, {
        "CDASHVAR": "AECYCVID",
        "SDTMVAR": "AECYCVID",
        "SDTMDOM": "AE"
    }, {
        "CDASHVAR": "AECYCNAM",
        "SDTMVAR": "AECYCNAM",
        "SDTMDOM": "AE"
    }, {
        "CDASHVAR": "AESTDAT",
        "SDTMVAR": "AESTDTC",
        "SDTMDOM": "AE"
    }, {
        "CDASHVAR": "AETOXGR_01",
        "SDTMVAR": "AETOXGR",
        "SDTMDOM": "AE"
    }, {
        "CDASHVAR": "AECONTRT",
        "SDTMVAR": "AECONTRT",
        "SDTMDOM": "AE"
    }, {
        "CDASHVAR": "AEACNC",
        "SDTMVAR": "AEACNC;AEACN",
        "SDTMDOM": "AE"
    }, {
        "CDASHVAR": "AEACNC2",
        "SDTMVAR": "AEACNC2;AEACN2",
        "SDTMDOM": "AE"
    }, {
        "CDASHVAR": "AEACNC3",
        "SDTMVAR": "AEACNC3;AEACN3",
        "SDTMDOM": "AE"
    }, {
        "CDASHVAR": "AEACNC4",
        "SDTMVAR": "AEACNC4;AEACN4",
        "SDTMDOM": "AE"
    }, {
        "CDASHVAR": "AEREL_01",
        "SDTMVAR": "AEREL",
        "SDTMDOM": "AE"
    }, {
        "CDASHVAR": "AEREL_01",
        "SDTMVAR": "AEREL2",
        "SDTMDOM": "AE"
    }, {
        "CDASHVAR": "AEREL_01",
        "SDTMVAR": "AEREL3",
        "SDTMDOM": "AE"
    }, {
        "CDASHVAR": "AEREL_01",
        "SDTMVAR": "AEREL4",
        "SDTMDOM": "AE"
    }, {
        "CDASHVAR": "AEREL_01",
        "SDTMVAR": "AERELNST",
        "SDTMDOM": "AE"
    }, {
        "CDASHVAR": "AEREL_01",
        "SDTMVAR": "AERELPR",
        "SDTMDOM": "AE"
    }, {
        "CDASHVAR": "AEOUT",
        "SDTMVAR": "AEOUT",
        "SDTMDOM": "AE"
    }, {
        "CDASHVAR": "AESTABLE",
        "SDTMVAR": "AESTABLE",
        "SDTMDOM": "AE"
    }, {
        "CDASHVAR": "AEENDAT",
        "SDTMVAR": "AEENDTC",
        "SDTMDOM": "AE"
    }, {
        "CDASHVAR": "AESEQUCM",
        "SDTMVAR": "AESEQUCM",
        "SDTMDOM": "AE"
    }, {
        "CDASHVAR": "AESTTIM",
        "SDTMVAR": "AESTDTC",
        "SDTMDOM": "AE"
    }, {
        "CDASHVAR": "AEENTIM",
        "SDTMVAR": "AEENDTC",
        "SDTMDOM": "AE"
    }, {
        "CDASHVAR": "AEOVIMP",
        "SDTMVAR": "AEOVIMP",
        "SDTMDOM": "AE"
    }, {
        "CDASHVAR": "AEOVIMP2",
        "SDTMVAR": "AEOVIMP2",
        "SDTMDOM": "AE"
    }, {
        "CDASHVAR": "AEOVIMP3",
        "SDTMVAR": "AEOVIMP3",
        "SDTMDOM": "AE"
    }, {
        "CDASHVAR": "AEOVIMP4",
        "SDTMVAR": "AEOVIMP4",
        "SDTMDOM": "AE"
    }, {
        "CDASHVAR": "AEOVNIMP",
        "SDTMVAR": "AEOVNIMP",
        "SDTMDOM": "AE"
    }, {
        "CDASHVAR": "AEOVOTCM",
        "SDTMVAR": "AEOVOTCM",
        "SDTMDOM": "AE"
    }, {
        "CDASHVAR": "AEOVNCM",
        "SDTMVAR": "AEOVNCM",
        "SDTMDOM": "AE"
    }, {
        "CDASHVAR": "AEOVNCMS",
        "SDTMVAR": "AEOVNCMS",
        "SDTMDOM": "AE"
    }, {
        "CDASHVAR": "AEACNC_ACN_01",
        "SDTMVAR": "AEACNC;AEACN",
        "SDTMDOM": "AE"
    }, {
        "CDASHVAR": "AEACNC2_ACN_01",
        "SDTMVAR": "AEACNC2;AEACN2",
        "SDTMDOM": "AE"
    }, {
        "CDASHVAR": "AEACNC3_ACN_01",
        "SDTMVAR": "AEACNC3;AEACN3",
        "SDTMDOM": "AE"
    }, {
        "CDASHVAR": "AEACNC4_ACN_01",
        "SDTMVAR": "AEACNC4;AEACN4",
        "SDTMDOM": "AE"
    }, {
        "CDASHVAR": "AEOVSYMP",
        "SDTMVAR": "AEOVSYMP",
        "SDTMDOM": "AE"
    }, {
        "CDASHVAR": "CGCAT",
        "SDTMVAR": "MHCAT;MICAT",
        "SDTMDOM": "MH;MI"
    }, {
        "CDASHVAR": "CGSTDAT",
        "SDTMVAR": "MHSTDTC;MIDTC",
        "SDTMDOM": "MH;MI"
    }, {
        "CDASHVAR": "CGTERM_NEOPLASM",
        "SDTMVAR": "MHTERM;MHPRESP",
        "SDTMDOM": "MH"
    }, {
        "CDASHVAR": "CGTRMSP",
        "SDTMVAR": "MHTERM",
        "SDTMDOM": "MH"
    }, {
        "CDASHVAR": "CGLOC",
        "SDTMVAR": "MHLOC",
        "SDTMDOM": "MH"
    }, {
        "CDASHVAR": "CGLOCSP",
        "SDTMVAR": "MHLOCOTH",
        "SDTMDOM": "MH"
    }, {
        "CDASHVAR": "CGPAT",
        "SDTMVAR": "MIORRES;MISTRESC",
        "SDTMDOM": "MI"
    }, {
        "CDASHVAR": "CGPATSP",
        "SDTMVAR": "MIORRES",
        "SDTMDOM": "MI"
    }, {
        "CDASHVAR": "CGT",
        "SDTMVAR": "MIORRES;MISTRESC",
        "SDTMDOM": "MI"
    }, {
        "CDASHVAR": "CGN",
        "SDTMVAR": "MIORRES;MISTRESC",
        "SDTMDOM": "MI"
    }, {
        "CDASHVAR": "CGM",
        "SDTMVAR": "MIORRES;MISTRESC",
        "SDTMDOM": "MI"
    }, {
        "CDASHVAR": "CGSC",
        "SDTMVAR": "MIORRES;MISTRESC;MISTRESN",
        "SDTMDOM": "MI"
    }, {
        "CDASHVAR": "CGSTG",
        "SDTMVAR": "MIORRES;MISTRESC",
        "SDTMDOM": "MI"
    }, {
        "CDASHVAR": "TTCAT",
        "SDTMVAR": "FACAT",
        "SDTMDOM": "FARS"
    }, {
        "CDASHVAR": "TTSCAT",
        "SDTMVAR": "FASCAT",
        "SDTMDOM": "FARS"
    }, {
        "CDASHVAR": "TTDAT",
        "SDTMVAR": "FAORRES;FASTRESC",
        "SDTMDOM": "FARS"
    }, {
        "CDASHVAR": "TTBR",
        "SDTMVAR": "FAORRES;FASTRESC",
        "SDTMDOM": "FARS"
    }, {
        "CDASHVAR": "TTEXTEN",
        "SDTMVAR": "FAORRES;FASTRESC",
        "SDTMDOM": "FARS"
    }, {
        "CDASHVAR": "TTCRIT",
        "SDTMVAR": "FATESTCD;FAOBJ;FASPID",
        "SDTMDOM": "FARS"
    }, {
        "CDASHVAR": "TTORRES",
        "SDTMVAR": "FAORRES;FASTRESC",
        "SDTMDOM": "FARS"
    }, {
        "CDASHVAR": "TTYN",
        "SDTMVAR": "FAORRES;FASTRESC",
        "SDTMDOM": "FARS"
    }, {
        "CDASHVAR": "TTATUS",
        "SDTMVAR": "FAORRES;FASTRESC",
        "SDTMDOM": "FARS"
    }, {
        "CDASHVAR": "TTCRIT",
        "SDTMVAR": "FATESTCD;FAOBJ",
        "SDTMDOM": "FARS"
    }, {
        "CDASHVAR": "FAOBJ",
        "SDTMVAR": "FAOBJ",
        "SDTMDOM": "FAAE"
    }, {
        "CDASHVAR": "FAORRES",
        "SDTMVAR": "FAORRES;FASTRESC",
        "SDTMDOM": "FAAE"
    }, {
        "CDASHVAR": "FAAENO",
        "SDTMVAR": "FAAENO",
        "SDTMDOM": "FAAE"
    }, {
        "CDASHVAR": "QSCAT",
        "SDTMVAR": "QSCAT",
        "SDTMDOM": "QSEG"
    }, {
        "CDASHVAR": "QSYN",
        "SDTMVAR": "QSSTAT",
        "SDTMDOM": "QSEG"
    }, {
        "CDASHVAR": "QSDAT",
        "SDTMVAR": "QSDTC",
        "SDTMDOM": "QSEG"
    }, {
        "CDASHVAR": "QSTESTCD_ECOG1TC",
        "SDTMVAR": "QSTESTCD",
        "SDTMDOM": "QSEG"
    }, {
        "CDASHVAR": "QSTEST_ECOG1TN",
        "SDTMVAR": "QSTEST",
        "SDTMDOM": "QSEG"
    }, {
        "CDASHVAR": "QSORRES",
        "SDTMVAR": "QSORRES;QSSTRESC;QSSTRESN",
        "SDTMDOM": "QSEG"
    }, {
        "CDASHVAR": "QSCAT",
        "SDTMVAR": "QSCAT",
        "SDTMDOM": "QS"
    }, {
        "CDASHVAR": "QSYN",
        "SDTMVAR": "QSSTAT",
        "SDTMDOM": "QS"
    }, {
        "CDASHVAR": "QSDAT",
        "SDTMVAR": "QSDTC",
        "SDTMDOM": "QS"
    }, {
        "CDASHVAR": "QSTESTCD_KPSSTC",
        "SDTMVAR": "QSTESTCD",
        "SDTMDOM": "QS"
    }, {
        "CDASHVAR": "QSTEST_KPSSTN",
        "SDTMVAR": "QSTEST",
        "SDTMDOM": "QS"
    }, {
        "CDASHVAR": "QSORRES",
        "SDTMVAR": "QSORRES;QSSTRESC;QSSTRESN",
        "SDTMDOM": "QS"
    }, {
        "CDASHVAR": "PRCAT",
        "SDTMVAR": "MOCAT;PRCAT",
        "SDTMDOM": "MO;PR"
    }, {
        "CDASHVAR": "PRSCAT",
        "SDTMVAR": "MOSCAT;PRSCAT",
        "SDTMDOM": "MO;PR"
    }, {
        "CDASHVAR": "PRLOC_TUW",
        "SDTMVAR": "MOLOC;PRLOC",
        "SDTMDOM": "MO;PR"
    }, {
        "CDASHVAR": "PRTRT",
        "SDTMVAR": "MOMETHOD;PRTRT",
        "SDTMDOM": "MO;PR"
    }, {
        "CDASHVAR": "PRTRTSP",
        "SDTMVAR": "MOMETHOD;PRTRT",
        "SDTMDOM": "MO;PR"
    }, {
        "CDASHVAR": "PRDAT",
        "SDTMVAR": "MODTC;PRDTC",
        "SDTMDOM": "MO;PR"
    }, {
        "CDASHVAR": "PRSTAT",
        "SDTMVAR": "MOSTAT;PRSTAT",
        "SDTMDOM": "MO;PR"
    }, {
        "CDASHVAR": "PRRES_NORABN",
        "SDTMVAR": "MOORRES;MOSTRESC",
        "SDTMDOM": "MO"
    }, {
        "CDASHVAR": "PRTUREL",
        "SDTMVAR": "MOORRES;MOSTRESC",
        "SDTMDOM": "MO"
    }, {
        "CDASHVAR": "PROSP",
        "SDTMVAR": "MOORRES;MOSTRESC",
        "SDTMDOM": "MO"
    }, {
        "CDASHVAR": "CMCAT_ONC",
        "SDTMVAR": "CMCAT",
        "SDTMDOM": "CM"
    }, {
        "CDASHVAR": "CMSCAT_ONC",
        "SDTMVAR": "CMSCAT",
        "SDTMDOM": "CM"
    }, {
        "CDASHVAR": "CMRESTRT_TRTRSN_02",
        "SDTMVAR": "CMRESTRT",
        "SDTMDOM": "CM"
    }, {
        "CDASHVAR": "CMDSREAS_07",
        "SDTMVAR": "CMRSDISC",
        "SDTMDOM": "CM"
    }, {
        "CDASHVAR": "CMDSRSP",
        "SDTMVAR": "CMDSROTH",
        "SDTMDOM": "CM"
    }, {
        "CDASHVAR": "CMRPDAT",
        "SDTMVAR": "CMRPDTC",
        "SDTMDOM": "CM"
    }, {
        "CDASHVAR": "CMBR",
        "SDTMVAR": "CMBR",
        "SDTMDOM": "CM"
    }, {
        "CDASHVAR": "CMGRPID",
        "SDTMVAR": "CMGRPID",
        "SDTMDOM": "CM"
    }, {
        "CDASHVAR": "CMSSCAT",
        "SDTMVAR": "CMSSCAT",
        "SDTMDOM": "CM"
    }, {
        "CDASHVAR": "CMDOSE",
        "SDTMVAR": "CMDOSE",
        "SDTMDOM": "CM"
    }, {
        "CDASHVAR": "CMROUTE_01",
        "SDTMVAR": "CMROUTE",
        "SDTMDOM": "CM"
    }, {
        "CDASHVAR": "CMPREP",
        "SDTMVAR": "CMPREP",
        "SDTMDOM": "CM"
    }, {
        "CDASHVAR": "PRCAT",
        "SDTMVAR": "PRCAT",
        "SDTMDOM": "PR"
    }, {
        "CDASHVAR": "PRSCAT",
        "SDTMVAR": "PRSCAT",
        "SDTMDOM": "PR"
    }, {
        "CDASHVAR": "PRTRT_WITH_CODING",
        "SDTMVAR": "PRTRT",
        "SDTMDOM": "PR"
    }, {
        "CDASHVAR": "PRYN",
        "SDTMVAR": "PROCCUR;PRPRESP",
        "SDTMDOM": "PR"
    }, {
        "CDASHVAR": "PRLOC",
        "SDTMVAR": "PRLOC",
        "SDTMDOM": "PR"
    }, {
        "CDASHVAR": "PRSTDAT",
        "SDTMVAR": "PRSTDTC",
        "SDTMDOM": "PR"
    }, {
        "CDASHVAR": "PRENDAT",
        "SDTMVAR": "PRENDTC",
        "SDTMDOM": "PR"
    }, {
        "CDASHVAR": "PRONGO",
        "SDTMVAR": "PRENRTPT",
        "SDTMDOM": "PR"
    }, {
        "CDASHVAR": "PRDOSE",
        "SDTMVAR": "PRDOSE",
        "SDTMDOM": "PR"
    }, {
        "CDASHVAR": "PRDOSU_UNIT_01",
        "SDTMVAR": "PRDOSU",
        "SDTMDOM": "PR"
    }, {
        "CDASHVAR": "PRINDC",
        "SDTMVAR": "PRTRTINT",
        "SDTMDOM": "PR"
    }, {
        "CDASHVAR": "PRANA",
        "SDTMVAR": "PRANA",
        "SDTMDOM": "PR"
    }, {
        "CDASHVAR": "PRISO",
        "SDTMVAR": "PRISO",
        "SDTMDOM": "PR"
    }, {
        "CDASHVAR": "PRDOSU_UNIT_02",
        "SDTMVAR": "PRDOSU",
        "SDTMDOM": "PR"
    }, {
        "CDASHVAR": "TRGRPID",
        "SDTMVAR": "TUORRES;TRGRPID",
        "SDTMDOM": "TU;TR"
    }, {
        "CDASHVAR": "TREVAL",
        "SDTMVAR": "TUEVAL;TREVAL",
        "SDTMDOM": "TU;TR"
    }, {
        "CDASHVAR": "TRTEST",
        "SDTMVAR": "TRTEST",
        "SDTMDOM": "TR"
    }, {
        "CDASHVAR": "TRLNKID",
        "SDTMVAR": "TULNKID;TRLNKID",
        "SDTMDOM": "TU;TR"
    }, {
        "CDASHVAR": "TRLOC",
        "SDTMVAR": "TULOC",
        "SDTMDOM": "TU"
    }, {
        "CDASHVAR": "TRSUBLOC",
        "SDTMVAR": "TUSUBLOC",
        "SDTMDOM": "TU"
    }, {
        "CDASHVAR": "TRDAT",
        "SDTMVAR": "TUDTC;TRDTC",
        "SDTMDOM": "TU;TR"
    }, {
        "CDASHVAR": "TRMETHOD",
        "SDTMVAR": "TUMETHOD;TRMETHOD",
        "SDTMDOM": "TU;TR"
    }, {
        "CDASHVAR": "TRMETSP",
        "SDTMVAR": "TUMETOTH;TRMETOTH",
        "SDTMDOM": "TU;TR"
    }, {
        "CDASHVAR": "TRORRES",
        "SDTMVAR": "TRORRES;TRSTRESC;TRSTRESN",
        "SDTMDOM": "TR"
    }, {
        "CDASHVAR": "TRORRESU",
        "SDTMVAR": "TRORRESU;TRSTRESU",
        "SDTMDOM": "TR"
    }, {
        "CDASHVAR": "TRORRES",
        "SDTMVAR": "TRORRES;TRSTRESC;TRSTRESN;TRSPID",
        "SDTMDOM": "TR"
    }, {
        "CDASHVAR": "TRORRES2",
        "SDTMVAR": "TRORRES;TRSTRESC;TRSTRESN",
        "SDTMDOM": "TR"
    }, {
        "CDASHVAR": "TRYN",
        "SDTMVAR": "TRORRES",
        "SDTMDOM": "TR"
    }, {
        "CDASHVAR": "TRSUBLOC",
        "SDTMVAR": "TULOCDTL",
        "SDTMDOM": "TU"
    }, {
        "CDASHVAR": "TRGRPID",
        "SDTMVAR": "TRGRPID",
        "SDTMDOM": "TR"
    }, {
        "CDASHVAR": "TREVAL",
        "SDTMVAR": "TREVAL",
        "SDTMDOM": "TR"
    }, {
        "CDASHVAR": "TRLNKID",
        "SDTMVAR": "TRLNKID",
        "SDTMDOM": "TR"
    }, {
        "CDASHVAR": "TRDAT",
        "SDTMVAR": "TRDTC",
        "SDTMDOM": "TR"
    }, {
        "CDASHVAR": "TRSTAT",
        "SDTMVAR": "TRSTAT",
        "SDTMDOM": "TR"
    }, {
        "CDASHVAR": "TRMETHOD",
        "SDTMVAR": "TRMETHOD",
        "SDTMDOM": "TR"
    }, {
        "CDASHVAR": "TRMETSP",
        "SDTMVAR": "TRMETOTH",
        "SDTMDOM": "TR"
    }, {
        "CDASHVAR": "RSCAT",
        "SDTMVAR": "RSCAT",
        "SDTMDOM": "RS"
    }, {
        "CDASHVAR": "RSEVAL",
        "SDTMVAR": "RSEVAL",
        "SDTMDOM": "RS"
    }, {
        "CDASHVAR": "RSTEST",
        "SDTMVAR": "RSTEST",
        "SDTMDOM": "RS"
    }, {
        "CDASHVAR": "RSDAT",
        "SDTMVAR": "RSDTC",
        "SDTMDOM": "RS"
    }, {
        "CDASHVAR": "RSORRES_01",
        "SDTMVAR": "RSORRES;RSSTRESC",
        "SDTMDOM": "RS"
    }, {
        "CDASHVAR": "RSNESP",
        "SDTMVAR": "RSNESP",
        "SDTMDOM": "RS"
    }, {
        "CDASHVAR": "RSPDSP",
        "SDTMVAR": "RSLOC1",
        "SDTMDOM": "RS"
    }, {
        "CDASHVAR": "RSNL",
        "SDTMVAR": "RSNL",
        "SDTMDOM": "RS"
    }, {
        "CDASHVAR": "RSORRES_OOR",
        "SDTMVAR": "RSORRES;RSSTRESC",
        "SDTMDOM": "RS"
    }, {
        "CDASHVAR": "DDDAT",
        "SDTMVAR": "DDDTC;DSSTDTC;DTHDTC",
        "SDTMDOM": "DD;DS;DM"
    }, {
        "CDASHVAR": "DDORRES",
        "SDTMVAR": "DDORRES;DDSTRESC;DSTERM",
        "SDTMDOM": "DD;DD;DS"
    }, {
        "CDASHVAR": "DDORRESP",
        "SDTMVAR": "DDORRES;DSTERM",
        "SDTMDOM": "DD;DS"
    }, {
        "CDASHVAR": "PCCAT",
        "SDTMVAR": "PCCAT",
        "SDTMDOM": "PC"
    }, {
        "CDASHVAR": "PCSPEC",
        "SDTMVAR": "PCSPEC",
        "SDTMDOM": "PC"
    }, {
        "CDASHVAR": "PCPERIOD",
        "SDTMVAR": "PCPERIOD",
        "SDTMDOM": "PC"
    }, {
        "CDASHVAR": "PCREFID",
        "SDTMVAR": "PCREFID",
        "SDTMDOM": "PC"
    }, {
        "CDASHVAR": "PCTPT",
        "SDTMVAR": "PCTPT",
        "SDTMDOM": "PC"
    }, {
        "CDASHVAR": "PCTPTNUM",
        "SDTMVAR": "PCTPTNUM",
        "SDTMDOM": "PC"
    }, {
        "CDASHVAR": "PCSTAT",
        "SDTMVAR": "PCSTAT",
        "SDTMDOM": "PC"
    }, {
        "CDASHVAR": "PRCAT",
        "SDTMVAR": "PRCAT;MOCAT",
        "SDTMDOM": "PR;MO"
    }, {
        "CDASHVAR": "PRSCAT_PRSCATEG",
        "SDTMVAR": "PRSCAT;MOSCAT",
        "SDTMDOM": "PR;MO"
    }, {
        "CDASHVAR": "PRTRT_OP",
        "SDTMVAR": "PRTRT;MOMETHOD",
        "SDTMDOM": "PR;MO"
    }, {
        "CDASHVAR": "PRPRESP",
        "SDTMVAR": "PRPRESP",
        "SDTMDOM": "PR"
    }, {
        "CDASHVAR": "PROCCUR",
        "SDTMVAR": "PROCCUR",
        "SDTMDOM": "PR"
    }, {
        "CDASHVAR": "PRDAT",
        "SDTMVAR": "PRSTDTC;MODTC",
        "SDTMDOM": "PR;MO"
    }, {
        "CDASHVAR": "PRTIM",
        "SDTMVAR": "PRSTDTC;MODTC",
        "SDTMDOM": "PR;MO"
    }, {
        "CDASHVAR": "PRREAS",
        "SDTMVAR": "PRINDC",
        "SDTMDOM": "PR"
    }, {
        "CDASHVAR": "PRAENO",
        "SDTMVAR": "PRAENO",
        "SDTMDOM": "PR"
    }, {
        "CDASHVAR": "PRMHNO",
        "SDTMVAR": "PRMHNO",
        "SDTMDOM": "PR"
    }, {
        "CDASHVAR": "PRRES",
        "SDTMVAR": "MOORRES;MOSTRESC",
        "SDTMDOM": "MO"
    }, {
        "CDASHVAR": "PRCLSIG",
        "SDTMVAR": "MOCLSIG",
        "SDTMDOM": "MO"
    }, {
        "CDASHVAR": "PRCLSIGC",
        "SDTMVAR": "MOCLSIGC",
        "SDTMDOM": "MO"
    }, {
        "CDASHVAR": "PRTRT_OP",
        "SDTMVAR": "PRTRT",
        "SDTMDOM": "PR"
    }, {
        "CDASHVAR": "PRDAT",
        "SDTMVAR": "PRSTDTC",
        "SDTMDOM": "PR"
    }, {
        "CDASHVAR": "CGDGST",
        "SDTMVAR": "MIORRES;MISTRESC",
        "SDTMDOM": "MI"
    }, {
        "CDASHVAR": "CGDGSP",
        "SDTMVAR": "MIORRES",
        "SDTMDOM": "MI"
    }, {
        "CDASHVAR": "CGRSK",
        "SDTMVAR": "MIORRES;MISTRESC",
        "SDTMDOM": "MI"
    }, {
        "CDASHVAR": "FACAT",
        "SDTMVAR": "FACAT",
        "SDTMDOM": "FACE"
    }, {
        "CDASHVAR": "FASPID",
        "SDTMVAR": "FASPID;FAREFID",
        "SDTMDOM": "FACE"
    }, {
        "CDASHVAR": "FAOBJ",
        "SDTMVAR": "FAOBJ",
        "SDTMDOM": "FACE"
    }, {
        "CDASHVAR": "FADAT",
        "SDTMVAR": "FADTC",
        "SDTMDOM": "FACE"
    }, {
        "CDASHVAR": "FAORRES",
        "SDTMVAR": "FAORRES;FASTRESC",
        "SDTMDOM": "FACE"
    }, {
        "CDASHVAR": "TTEXTEN_NST",
        "SDTMVAR": "FAORRES;FASTRESC",
        "SDTMDOM": "FARS"
    }, {
        "CDASHVAR": "TTRSK",
        "SDTMVAR": "FAORRES;FASTRESC",
        "SDTMDOM": "FARS"
    }, {
        "CDASHVAR": "PECAT",
        "SDTMVAR": "MOCAT",
        "SDTMDOM": "MO"
    }, {
        "CDASHVAR": "PESCAT",
        "SDTMVAR": "MOSCAT",
        "SDTMDOM": "MO"
    }, {
        "CDASHVAR": "PETPT",
        "SDTMVAR": "MOTPT",
        "SDTMDOM": "MO"
    }, {
        "CDASHVAR": "PETEST_LOC_05",
        "SDTMVAR": "MOTEST",
        "SDTMDOM": "MO"
    }, {
        "CDASHVAR": "PEMETHOD",
        "SDTMVAR": "MOMETHOD",
        "SDTMDOM": "MO"
    }, {
        "CDASHVAR": "PEDAT",
        "SDTMVAR": "MODTC",
        "SDTMDOM": "MO"
    }, {
        "CDASHVAR": "PESTAT",
        "SDTMVAR": "MOSTAT",
        "SDTMDOM": "MO"
    }, {
        "CDASHVAR": "PEORRES1",
        "SDTMVAR": "MOORRES;MOSTRESC",
        "SDTMDOM": "MO"
    }, {
        "CDASHVAR": "PEORRESU",
        "SDTMVAR": "MOORRESU;MOSTRESU",
        "SDTMDOM": "MO"
    }, {
        "CDASHVAR": "PESCAT",
        "SDTMVAR": "PESCAT",
        "SDTMDOM": "MO"
    }, {
        "CDASHVAR": "PEORRES",
        "SDTMVAR": "MOORRES;MOSTRESC",
        "SDTMDOM": "MO"
    }, {
        "CDASHVAR": "LBCAT",
        "SDTMVAR": "LBCAT",
        "SDTMDOM": "LB"
    }, {
        "CDASHVAR": "LBSCAT",
        "SDTMVAR": "LBSCAT",
        "SDTMDOM": "LB"
    }, {
        "CDASHVAR": "LBSPEC",
        "SDTMVAR": "LBSPEC",
        "SDTMDOM": "LB"
    }, {
        "CDASHVAR": "LBTPT",
        "SDTMVAR": "LBTPT",
        "SDTMDOM": "LB"
    }, {
        "CDASHVAR": "LBTEST",
        "SDTMVAR": "LBTEST",
        "SDTMDOM": "LB"
    }, {
        "CDASHVAR": "LBTESTCD",
        "SDTMVAR": "LBTESTCD",
        "SDTMDOM": "LB"
    }, {
        "CDASHVAR": "LBORRES",
        "SDTMVAR": "LBORRES",
        "SDTMDOM": "LB"
    }, {
        "CDASHVAR": "LBORRESU",
        "SDTMVAR": "LBORRESU",
        "SDTMDOM": "LB"
    }, {
        "CDASHVAR": "LBSTRESU",
        "SDTMVAR": "LBSTRESU",
        "SDTMDOM": "LB"
    }, {
        "CDASHVAR": "LBSTRESN",
        "SDTMVAR": "LBSTRESN",
        "SDTMDOM": "LB"
    }, {
        "CDASHVAR": "LBSTRESC",
        "SDTMVAR": "LBSTRESC",
        "SDTMDOM": "LB"
    }, {
        "CDASHVAR": "PRTRT_TRANSTYP",
        "SDTMVAR": "PRTRT",
        "SDTMDOM": "PR"
    }, {
        "CDASHVAR": "PRTYP_LOC_06",
        "SDTMVAR": "PRSPEC",
        "SDTMDOM": "PR"
    }, {
        "CDASHVAR": "PRTYPSP",
        "SDTMVAR": "PRSPEOTH",
        "SDTMDOM": "PR"
    }, {
        "CDASHVAR": "PRORRES",
        "SDTMVAR": "PRNTRP",
        "SDTMDOM": "PR"
    }, {
        "CDASHVAR": "PRORRESU",
        "SDTMVAR": "PRNTRPU",
        "SDTMDOM": "PR"
    }, {
        "CDASHVAR": "TRGRPID",
        "SDTMVAR": "TUORRES;TUSTRESC;TRGRPID",
        "SDTMDOM": "TU;TU;TR"
    }, {
        "CDASHVAR": "TRLOC_FDG",
        "SDTMVAR": "TULOC",
        "SDTMDOM": "TU"
    }, {
        "CDASHVAR": "TRORRES_FDG",
        "SDTMVAR": "TRORRES;TRSTRESC;TRSTRESN;TRTEST",
        "SDTMDOM": "TR"
    }, {
        "CDASHVAR": "TRORRES2_FDG",
        "SDTMVAR": "TRORRES;TRSTRESC;TRSTRESN",
        "SDTMDOM": "TR"
    }, {
        "CDASHVAR": "TRORRES3",
        "SDTMVAR": "TRORRES;TRSTRESC;TRSTRESN",
        "SDTMDOM": "TR"
    }, {
        "CDASHVAR": "EGMETHOD",
        "SDTMVAR": "EGMETHOD",
        "SDTMDOM": "Pending"
    }, {
        "CDASHVAR": "EGTPT",
        "SDTMVAR": "EGTPT",
        "SDTMDOM": "Pending"
    }, {
        "CDASHVAR": "EGTPTNUM",
        "SDTMVAR": "EGTPTNUM",
        "SDTMDOM": "Pending"
    }, {
        "CDASHVAR": "EGSPID",
        "SDTMVAR": "EGSPID",
        "SDTMDOM": "Pending"
    }, {
        "CDASHVAR": "EGCLSIG",
        "SDTMVAR": "EGCLSIG",
        "SDTMDOM": "Pending"
    }, {
        "CDASHVAR": "EGAENO",
        "SDTMVAR": "EGAENO",
        "SDTMDOM": "Pending"
    }, {
        "CDASHVAR": "VSHGHTU",
        "SDTMVAR": "VSORRESU;VSSTRESU\n",
        "SDTMDOM": "VS"
    }, {
        "CDASHVAR": "VSTPT",
        "SDTMVAR": "VSTPT",
        "SDTMDOM": "VS"
    }, {
        "CDASHVAR": "LBSONRLO",
        "SDTMVAR": "LBSONRLO",
        "SDTMDOM": "Pending"
    }, {
        "CDASHVAR": "LBSONRHI",
        "SDTMVAR": "LBSONRHI",
        "SDTMDOM": "Pending"
    }, {
        "CDASHVAR": "LBSINRLO",
        "SDTMVAR": "LBSTNRLO",
        "SDTMDOM": "Pending"
    }, {
        "CDASHVAR": "LBSINRHI",
        "SDTMVAR": "LBSTNRHI",
        "SDTMDOM": "Pending"
    }, {
        "CDASHVAR": "LBSTRESU",
        "SDTMVAR": "LBSTRESU",
        "SDTMDOM": "Pending"
    }, {
        "CDASHVAR": "LBSTRESN",
        "SDTMVAR": "LBSTRESN",
        "SDTMDOM": "Pending"
    }, {
        "CDASHVAR": "LBSTRESC",
        "SDTMVAR": "LBSTRESC",
        "SDTMDOM": "Pending"
    }, {
        "CDASHVAR": "PCCAT",
        "SDTMVAR": "PCCAT",
        "SDTMDOM": "Out of Scope"
    }, {
        "CDASHVAR": "PCSPEC",
        "SDTMVAR": "PCSPEC",
        "SDTMDOM": "Out of Scope"
    }, {
        "CDASHVAR": "PCPERIOD",
        "SDTMVAR": "PCPERIOD",
        "SDTMDOM": "Out of Scope"
    }, {
        "CDASHVAR": "PCREFID",
        "SDTMVAR": "PCREFID",
        "SDTMDOM": "Out of Scope"
    }, {
        "CDASHVAR": "PCTPT",
        "SDTMVAR": "PCTPT",
        "SDTMDOM": "Out of Scope"
    }, {
        "CDASHVAR": "PCTPTNUM",
        "SDTMVAR": "PCTPTNUM",
        "SDTMDOM": "Out of Scope"
    }, {
        "CDASHVAR": "AECAT",
        "SDTMVAR": "AECAT",
        "SDTMDOM": "AE;APAE"
    }, {
        "CDASHVAR": "AESPID",
        "SDTMVAR": "AEREFID",
        "SDTMDOM": "AE;APAE"
    }, {
        "CDASHVAR": "AEISPID",
        "SDTMVAR": "AEISPID",
        "SDTMDOM": "AE;APAE"
    }, {
        "CDASHVAR": "AETERM",
        "SDTMVAR": "AETERM",
        "SDTMDOM": "AE;APAE"
    }, {
        "CDASHVAR": "AESTDAT",
        "SDTMVAR": "AESTDTC",
        "SDTMDOM": "AE;APAE"
    }, {
        "CDASHVAR": "AEACNC_ACN_03",
        "SDTMVAR": "AEACNC;AEACN",
        "SDTMDOM": "AE;APAE"
    }, {
        "CDASHVAR": "AEACNC2_ACN_03",
        "SDTMVAR": "AEACNC2;AEACN2",
        "SDTMDOM": "AE;APAE"
    }, {
        "CDASHVAR": "AEACNC3_ACN_03",
        "SDTMVAR": "AEACNC3;AEACN3",
        "SDTMDOM": "AE;APAE"
    }, {
        "CDASHVAR": "AEACNC4_ACN_03",
        "SDTMVAR": "AEACNC4;AEACN4",
        "SDTMDOM": "AE;APAE"
    }, {
        "CDASHVAR": "AEREL_01",
        "SDTMVAR": "AEREL",
        "SDTMDOM": "AE;APAE"
    }, {
        "CDASHVAR": "AEREL_01",
        "SDTMVAR": "AEREL2",
        "SDTMDOM": "AE;APAE"
    }, {
        "CDASHVAR": "AEREL_01",
        "SDTMVAR": "AEREL3",
        "SDTMDOM": "AE;APAE"
    }, {
        "CDASHVAR": "AEREL_01",
        "SDTMVAR": "AEREL4",
        "SDTMDOM": "AE;APAE"
    }, {
        "CDASHVAR": "AEREL_01",
        "SDTMVAR": "AERELNST",
        "SDTMDOM": "AE;APAE"
    }, {
        "CDASHVAR": "AEPRAEYN",
        "SDTMVAR": "AEPRAEYN",
        "SDTMDOM": "AE;APAE"
    }, {
        "CDASHVAR": "AEOUTPRG",
        "SDTMVAR": "AEOUTPRG",
        "SDTMDOM": "AE;APAE"
    }, {
        "CDASHVAR": "AEENDAT",
        "SDTMVAR": "AEENDTC",
        "SDTMDOM": "AE;APAE"
    }, {
        "CDASHVAR": "AEENTIM",
        "SDTMVAR": "AEENDTC",
        "SDTMDOM": "AE;APAE"
    }, {
        "CDASHVAR": "PRTPT",
        "SDTMVAR": "PRTPT",
        "SDTMDOM": "PR"
    }, {
        "CDASHVAR": "PECAT",
        "SDTMVAR": "PECAT",
        "SDTMDOM": "PE"
    }, {
        "CDASHVAR": "PESCAT",
        "SDTMVAR": "PESCAT",
        "SDTMDOM": "PE"
    }, {
        "CDASHVAR": "PETPT",
        "SDTMVAR": "PETPT",
        "SDTMDOM": "PE"
    }, {
        "CDASHVAR": "PETEST_LOC_05",
        "SDTMVAR": "PETEST",
        "SDTMDOM": "PE"
    }, {
        "CDASHVAR": "PEMETHOD",
        "SDTMVAR": "PEMETHOD",
        "SDTMDOM": "PE"
    }, {
        "CDASHVAR": "PEDAT",
        "SDTMVAR": "PEDTC",
        "SDTMDOM": "PE"
    }, {
        "CDASHVAR": "PESTAT",
        "SDTMVAR": "PESTAT",
        "SDTMDOM": "PE"
    }, {
        "CDASHVAR": "PEORRES1",
        "SDTMVAR": "PEORRES;PESTRESC",
        "SDTMDOM": "PE"
    }, {
        "CDASHVAR": "PEORRESU",
        "SDTMVAR": "PEORRESU;PESTRESU",
        "SDTMDOM": "PE"
    }, {
        "CDASHVAR": "PEPERF",
        "SDTMVAR": "MOSTAT",
        "SDTMDOM": "MO"
    }, {
        "CDASHVAR": "PEORRES",
        "SDTMVAR": "PEORRES;PESTRESC",
        "SDTMDOM": "PE"
    }, {
        "CDASHVAR": "TRORRES_FDG",
        "SDTMVAR": "TRORRES;TRSTRESC;TRSTRESN",
        "SDTMDOM": "TR"
    }, {
        "CDASHVAR": "TRORRES3",
        "SDTMVAR": "TRORRES;TRSTRESC",
        "SDTMDOM": "TR"
    }, {
        "CDASHVAR": "RDVISREF",
        "SDTMVAR": "RDVISREF",
        "SDTMDOM": "IVRS"
    }, {
        "CDASHVAR": "DSSTDAT",
        "SDTMVAR": "DSSTADTC;DSSTDTC",
        "SDTMDOM": "IVRS;DS"
    }, {
        "CDASHVAR": "DSSTTIM",
        "SDTMVAR": "DSSTADTC;DSSTDTC",
        "SDTMDOM": "IVRS;DS"
    }, {
        "CDASHVAR": "RDRAND",
        "SDTMVAR": "RDRAND",
        "SDTMDOM": "IVRS"
    }, {
        "CDASHVAR": "RDBLKNB",
        "SDTMVAR": "RDBLKNB",
        "SDTMDOM": "IVRS"
    }, {
        "CDASHVAR": "RDSEQNB",
        "SDTMVAR": "RDSEQNB",
        "SDTMDOM": "IVRS"
    }, {
        "CDASHVAR": "RDSTRAT1",
        "SDTMVAR": "RDSTRAT1;STRATUM",
        "SDTMDOM": "IVRS;DM"
    }, {
        "CDASHVAR": "RDSTRAT2",
        "SDTMVAR": "RDSTRAT2;STRATUM2",
        "SDTMDOM": "IVRS;DM"
    }, {
        "CDASHVAR": "RDSTRAT3",
        "SDTMVAR": "RDSTRAT3;STRATUM3",
        "SDTMDOM": "IVRS;DM"
    }, {
        "CDASHVAR": "RDSTRAT4",
        "SDTMVAR": "RDSTRAT4;STRATUM4",
        "SDTMDOM": "IVRS;DM"
    }, {
        "CDASHVAR": "RDSTRAT5",
        "SDTMVAR": "RDSTRAT5;STRATUM5",
        "SDTMDOM": "IVRS;DM"
    }, {
        "CDASHVAR": "RDTTNBX",
        "SDTMVAR": "RDTTNBX",
        "SDTMDOM": "IVRS"
    }, {
        "CDASHVAR": "RDARM",
        "SDTMVAR": "RDARM",
        "SDTMDOM": "IVRS"
    }, {
        "CDASHVAR": "RDGROUP1",
        "SDTMVAR": "RDGROUP1",
        "SDTMDOM": "IVRS"
    }, {
        "CDASHVAR": "RDGROUP2",
        "SDTMVAR": "RDGROUP2",
        "SDTMDOM": "IVRS"
    }, {
        "CDASHVAR": "RDGROUP3",
        "SDTMVAR": "RDGROUP3",
        "SDTMDOM": "IVRS"
    }, {
        "CDASHVAR": "RDSIDE",
        "SDTMVAR": "RDSIDE",
        "SDTMDOM": "IVRS"
    }, {
        "CDASHVAR": "RDTTCAT",
        "SDTMVAR": "RDTTCAT",
        "SDTMDOM": "IVRS"
    }, {
        "CDASHVAR": "RDALDAT",
        "SDTMVAR": "RDALDTC",
        "SDTMDOM": "IVRS"
    }, {
        "CDASHVAR": "RDALTIM",
        "SDTMVAR": "RDALDTC",
        "SDTMDOM": "IVRS"
    }, {
        "CDASHVAR": "RDALGDAT",
        "SDTMVAR": "RDALGDTC",
        "SDTMDOM": "IVRS"
    }, {
        "CDASHVAR": "RDALGTIM",
        "SDTMVAR": "RDALGDTC",
        "SDTMDOM": "IVRS"
    }, {
        "CDASHVAR": "RDBKUNB",
        "SDTMVAR": "RDBKUNB",
        "SDTMDOM": "IVRS"
    }, {
        "CDASHVAR": "RDBKDAT",
        "SDTMVAR": "RDBKDDTC",
        "SDTMDOM": "IVRS"
    }, {
        "CDASHVAR": "RDBKWHO",
        "SDTMVAR": "RDBKWHO",
        "SDTMDOM": "IVRS"
    }, {
        "CDASHVAR": "DSDECOD_NCOMPLT_END03",
        "SDTMVAR": "DSDECOD;DSTERM",
        "SDTMDOM": "DS"
    }, {
        "CDASHVAR": "PEPERF",
        "SDTMVAR": "PETESTCD;PESTAT",
        "SDTMDOM": "PE"
    }, {
        "CDASHVAR": "PETIM",
        "SDTMVAR": "PEDTC",
        "SDTMDOM": "PE"
    }, {
        "CDASHVAR": "PEFNDYN",
        "SDTMVAR": "PEORRES;PESTRESC",
        "SDTMDOM": "PE"
    }, {
        "CDASHVAR": "PETEST",
        "SDTMVAR": "PETEST",
        "SDTMDOM": "PE"
    }, {
        "CDASHVAR": "PERES",
        "SDTMVAR": "PEORRES;PESTRESC",
        "SDTMDOM": "PE"
    }, {
        "CDASHVAR": "PEDESC",
        "SDTMVAR": "PEORRES",
        "SDTMDOM": "PE"
    }, {
        "CDASHVAR": "PECLSIG",
        "SDTMVAR": "PECLSIG",
        "SDTMDOM": "PE"
    }, {
        "CDASHVAR": "PEAENO",
        "SDTMVAR": "PEAENO",
        "SDTMDOM": "PE"
    }
]