[{"pagenumber":1.0,"form":"Subject Identifier","OID":"SUB_ID","Domain":null,"order":2.0,"PreText":"Subject Enrollment ID","Question":null,"CDASH":"ENRID","CDASHTYPE":"SANOFI","SDTM":"","SDTMTYPE":"","codename":null,"codelist":null,"class":"question","x":70.866,"y":666.671,"height":15.744,"width":108.54},{"pagenumber":1.0,"form":"Subject Identifier","OID":"SUB_ID","Domain":"DM","order":3.0,"PreText":"Subject Identifier for the Study","Question":"What is the subject identifier?","CDASH":"SUBJID","CDASHTYPE":"IG","SDTM":"DM.SUBJID","SDTMTYPE":"IG","codename":null,"codelist":null,"class":"question","x":70.866,"y":649.671,"height":15.744,"width":149.172},{"pagenumber":1.0,"form":"Subject Identifier","OID":"SUB_ID","Domain":null,"order":4.0,"PreText":"System Date","Question":null,"CDASH":"SYSDAT","CDASHTYPE":"SANOFI","SDTM":"","SDTMTYPE":"","codename":null,"codelist":null,"class":"question","x":70.866,"y":632.671,"height":15.744,"width":60.924},{"pagenumber":2.0,"form":"IVRS Library","OID":"IVRS_ALL","Domain":"SV","order":2.0,"PreText":"First Visit\/Screening Date","Question":"What [is\/was] the date of the visit?","CDASH":"VISDAT","CDASHTYPE":"IG","SDTM":"SVSTDTC;SVENDTC","SDTMTYPE":"SANOFI","codename":null,"codelist":null,"class":"question","x":70.866,"y":666.671,"height":15.744,"width":125.172},{"pagenumber":2.0,"form":"IVRS Library","OID":"IVRS_ALL","Domain":null,"order":3.0,"PreText":"First Run In Visit Date","Question":null,"CDASH":"DSRUDAT","CDASHTYPE":"SANOFI","SDTM":"","SDTMTYPE":"","codename":null,"codelist":null,"class":"question","x":70.866,"y":649.671,"height":15.744,"width":109.896},{"pagenumber":2.0,"form":"IVRS Library","OID":"IVRS_ALL","Domain":"IVRS","order":4.0,"PreText":"Visit Identifier","Question":null,"CDASH":"RDVISREF","CDASHTYPE":"SANOFI","SDTM":"RDVISREF","SDTMTYPE":"SANOFI","codename":null,"codelist":null,"class":"question","x":70.866,"y":632.671,"height":15.744,"width":70.896},{"pagenumber":2.0,"form":"IVRS Library","OID":"IVRS_ALL","Domain":"DS","order":5.0,"PreText":"Randomization Date\/First IMP Allocation Date","Question":"What was the [protocol milestone\/disposition event\/other event name] date?","CDASH":"DSSTDAT","CDASHTYPE":"IG","SDTM":"DSSTDTC","SDTMTYPE":"IG","codename":null,"codelist":null,"class":"question","x":70.866,"y":615.671,"height":15.744,"width":227.712},{"pagenumber":2.0,"form":"IVRS Library","OID":"IVRS_ALL","Domain":"DS","order":6.0,"PreText":"Randomization Time\/First IMP Allocation Time","Question":"What was the [protocol milestone\/disposition event\/other event name] time?","CDASH":"DSSTTIM","CDASHTYPE":"IG","SDTM":"DSSTDTC","SDTMTYPE":"IG","codename":null,"codelist":null,"class":"question","x":70.866,"y":598.671,"height":15.744,"width":233.04},{"pagenumber":2.0,"form":"IVRS Library","OID":"IVRS_ALL","Domain":"IVRS;RAND","order":7.0,"PreText":"Randomization Number","Question":null,"CDASH":"RDRAND","CDASHTYPE":"SANOFI","SDTM":"RDRAND","SDTMTYPE":"SANOFI","codename":null,"codelist":null,"class":"question","x":70.866,"y":581.671,"height":15.744,"width":115.536},{"pagenumber":2.0,"form":"IVRS Library","OID":"IVRS_ALL","Domain":"IVRS;RAND","order":8.0,"PreText":"Randomization Block Number","Question":null,"CDASH":"RDBLKNB","CDASHTYPE":"SANOFI","SDTM":"RDBLKNB","SDTMTYPE":"SANOFI","codename":null,"codelist":null,"class":"question","x":70.866,"y":564.671,"height":15.744,"width":147.168},{"pagenumber":2.0,"form":"IVRS Library","OID":"IVRS_ALL","Domain":"IVRS;RAND","order":9.0,"PreText":"Randomization Sequence Number","Question":null,"CDASH":"RDSEQNB","CDASHTYPE":"SANOFI","SDTM":"RDSEQNB","SDTMTYPE":"SANOFI","codename":null,"codelist":null,"class":"question","x":70.866,"y":547.671,"height":15.744,"width":164.472},{"pagenumber":2.0,"form":"IVRS Library","OID":"IVRS_ALL","Domain":"IVRS;RAND","order":10.0,"PreText":"Stratification Factor 1","Question":null,"CDASH":"RDSTRAT1","CDASHTYPE":"SANOFI","SDTM":"RDSTRAT1","SDTMTYPE":"SANOFI","codename":null,"codelist":null,"class":"question","x":70.866,"y":530.671,"height":15.744,"width":105.18},{"pagenumber":2.0,"form":"IVRS Library","OID":"IVRS_ALL","Domain":"IVRS;RAND","order":11.0,"PreText":"Stratification Factor 2","Question":null,"CDASH":"RDSTRAT2","CDASHTYPE":"SANOFI","SDTM":"RDSTRAT2","SDTMTYPE":"SANOFI","codename":null,"codelist":null,"class":"question","x":70.866,"y":513.671,"height":15.744,"width":105.18},{"pagenumber":2.0,"form":"IVRS Library","OID":"IVRS_ALL","Domain":"IVRS;RAND","order":12.0,"PreText":"Stratification Factor 3","Question":null,"CDASH":"RDSTRAT3","CDASHTYPE":"SANOFI","SDTM":"RDSTRAT3","SDTMTYPE":"SANOFI","codename":null,"codelist":null,"class":"question","x":70.866,"y":496.671,"height":15.744,"width":105.18},{"pagenumber":2.0,"form":"IVRS Library","OID":"IVRS_ALL","Domain":"IVRS;RAND","order":13.0,"PreText":"Stratification Factor 4","Question":null,"CDASH":"RDSTRAT4","CDASHTYPE":"SANOFI","SDTM":"RDSTRAT4","SDTMTYPE":"SANOFI","codename":null,"codelist":null,"class":"question","x":70.866,"y":479.671,"height":15.744,"width":105.18},{"pagenumber":2.0,"form":"IVRS Library","OID":"IVRS_ALL","Domain":"IVRS;RAND","order":14.0,"PreText":"Stratification Factor 5","Question":null,"CDASH":"RDSTRAT5","CDASHTYPE":"SANOFI","SDTM":"RDSTRAT5","SDTMTYPE":"SANOFI","codename":null,"codelist":null,"class":"question","x":70.866,"y":462.671,"height":15.744,"width":105.18},{"pagenumber":2.0,"form":"IVRS Library","OID":"IVRS_ALL","Domain":"IVRS","order":15.0,"PreText":"Treatment Number as Planned","Question":null,"CDASH":"RDTTNBX","CDASHTYPE":"SANOFI","SDTM":"RDTTNBX","SDTMTYPE":"SANOFI","codename":null,"codelist":null,"class":"question","x":70.866,"y":445.671,"height":15.744,"width":146.148},{"pagenumber":2.0,"form":"IVRS Library","OID":"IVRS_ALL","Domain":"IVRS;RAND","order":16.0,"PreText":"Treatment Arm as Planned","Question":null,"CDASH":"RDARM","CDASHTYPE":"SANOFI","SDTM":"RDARM","SDTMTYPE":"SANOFI","codename":null,"codelist":null,"class":"question","x":70.866,"y":428.671,"height":15.744,"width":128.832},{"pagenumber":2.0,"form":"IVRS Library","OID":"IVRS_ALL","Domain":"IVRS","order":17.0,"PreText":"Subgroup Information as Planned 1","Question":null,"CDASH":"RDGROUP1","CDASHTYPE":"SANOFI","SDTM":"RDGROUP1","SDTMTYPE":"SANOFI","codename":null,"codelist":null,"class":"question","x":70.866,"y":411.671,"height":15.744,"width":170.556},{"pagenumber":2.0,"form":"IVRS Library","OID":"IVRS_ALL","Domain":"IVRS","order":18.0,"PreText":"Subgroup Information as Planned 2","Question":null,"CDASH":"RDGROUP2","CDASHTYPE":"SANOFI","SDTM":"RDGROUP2","SDTMTYPE":"SANOFI","codename":null,"codelist":null,"class":"question","x":70.866,"y":394.671,"height":15.744,"width":170.556},{"pagenumber":2.0,"form":"IVRS Library","OID":"IVRS_ALL","Domain":"IVRS","order":19.0,"PreText":"Subgroup Information as Planned 3","Question":null,"CDASH":"RDGROUP3","CDASHTYPE":"SANOFI","SDTM":"RDGROUP3","SDTMTYPE":"SANOFI","codename":null,"codelist":null,"class":"question","x":70.866,"y":377.671,"height":15.744,"width":170.556},{"pagenumber":2.0,"form":"IVRS Library","OID":"IVRS_ALL","Domain":"IVRS","order":20.0,"PreText":"Treatment Side as Planned","Question":null,"CDASH":"RDSIDE","CDASHTYPE":"SANOFI","SDTM":"RDSIDE","SDTMTYPE":"SANOFI","codename":"LAT_01","codelist":"LEFT;RIGHT","class":"question","x":70.866,"y":360.671,"height":15.744,"width":128.16},{"pagenumber":2.0,"form":"IVRS Library","OID":"IVRS_ALL","Domain":"IVRS","order":21.0,"PreText":"Category for Treatment","Question":null,"CDASH":"RDTTCAT","CDASHTYPE":"SANOFI","SDTM":"RDTTCAT","SDTMTYPE":"SANOFI","codename":null,"codelist":null,"class":"question","x":70.866,"y":325.671,"height":15.744,"width":113.172},{"pagenumber":2.0,"form":"IVRS Library","OID":"IVRS_ALL","Domain":"IVRS","order":22.0,"PreText":"Date of Treatment Allocation","Question":null,"CDASH":"RDALDAT","CDASHTYPE":"SANOFI","SDTM":"RDALDTC","SDTMTYPE":"SANOFI","codename":null,"codelist":null,"class":"question","x":70.866,"y":308.671,"height":15.744,"width":141.444},{"pagenumber":2.0,"form":"IVRS Library","OID":"IVRS_ALL","Domain":"IVRS","order":23.0,"PreText":"Time of Treatment Allocation","Question":null,"CDASH":"RDALTIM","CDASHTYPE":"SANOFI","SDTM":"RDALDTC","SDTMTYPE":"SANOFI","codename":null,"codelist":null,"class":"question","x":70.866,"y":291.671,"height":15.744,"width":144.108},{"pagenumber":2.0,"form":"IVRS Library","OID":"IVRS_ALL","Domain":"IVRS","order":24.0,"PreText":"Date of Treatment Allocation (IVRS\/IWRS)","Question":null,"CDASH":"RDALGDAT","CDASHTYPE":"SANOFI","SDTM":"RDALGDTC","SDTMTYPE":"SANOFI","codename":null,"codelist":null,"class":"question","x":70.866,"y":274.671,"height":15.744,"width":213.06},{"pagenumber":2.0,"form":"IVRS Library","OID":"IVRS_ALL","Domain":"IVRS","order":25.0,"PreText":"Time of Treatment Allocation (IVRS\/IWRS)","Question":null,"CDASH":"RDALGTIM","CDASHTYPE":"SANOFI","SDTM":"RDALGDTC","SDTMTYPE":"SANOFI","codename":null,"codelist":null,"class":"question","x":70.866,"y":257.671,"height":15.744,"width":215.724},{"pagenumber":2.0,"form":"IVRS Library","OID":"IVRS_ALL","Domain":"IVRS","order":26.0,"PreText":"Is there a blind broken?","Question":null,"CDASH":"RDBKUNB","CDASHTYPE":"SANOFI","SDTM":"RDBKUNB","SDTMTYPE":"SANOFI","codename":null,"codelist":null,"class":"question","x":70.866,"y":240.671,"height":15.744,"width":113.208},{"pagenumber":2.0,"form":"IVRS Library","OID":"IVRS_ALL","Domain":"IVRS","order":27.0,"PreText":"Local Date of blind broken","Question":null,"CDASH":"RDBKDAT","CDASHTYPE":"SANOFI","SDTM":"RDBKDDTC","SDTMTYPE":"SANOFI","codename":null,"codelist":null,"class":"question","x":70.866,"y":223.671,"height":15.744,"width":129.852},{"pagenumber":2.0,"form":"IVRS Library","OID":"IVRS_ALL","Domain":"IVRS","order":28.0,"PreText":"Function of the blind breaker","Question":null,"CDASH":"RDBKWHO","CDASHTYPE":"SANOFI","SDTM":"RDBKWHO","SDTMTYPE":"SANOFI","codename":"DSCBWHOR","codelist":"ESMS;INVESTIGATOR;PHARMACIST;STUDY NURSE","class":"question","x":70.866,"y":206.671,"height":15.744,"width":139.86},{"pagenumber":2.0,"form":"IVRS Library","OID":"IVRS_ALL","Domain":null,"order":29.0,"PreText":"IVRS original export date and time","Question":null,"CDASH":"EXPRTDT","CDASHTYPE":"SANOFI","SDTM":"","SDTMTYPE":"","codename":null,"codelist":null,"class":"question","x":70.866,"y":139.671,"height":15.744,"width":168.804},{"pagenumber":2.0,"form":"IVRS Library","OID":"IVRS_ALL","Domain":null,"order":30.0,"PreText":"IVRS Transaction ID","Question":null,"CDASH":"RDSPID","CDASHTYPE":"SANOFI","SDTM":"","SDTMTYPE":"","codename":null,"codelist":null,"class":"question","x":70.866,"y":122.671,"height":15.744,"width":102.564},{"pagenumber":3.0,"form":"Visit Date","OID":"SV_01","Domain":null,"order":2.0,"PreText":"Was the visit performed?","Question":null,"CDASH":"VISYN","CDASHTYPE":"SANOFI","SDTM":"","SDTMTYPE":"","codename":"NY_YN","codelist":"Y;N","class":"question","x":70.866,"y":666.671,"height":15.744,"width":120.84},{"pagenumber":3.0,"form":"Visit Date","OID":"SV_01","Domain":null,"order":3.0,"PreText":"If yes, provide the date:","Question":null,"CDASH":"PROMPT_VISDAT","CDASHTYPE":"SANOFI","SDTM":"","SDTMTYPE":"","codename":null,"codelist":null,"class":"question","x":70.866,"y":631.659,"height":15.948,"width":113.52},{"pagenumber":3.0,"form":"Visit Date","OID":"SV_01","Domain":"SV","order":4.0,"PreText":"Date of Visit","Question":"What [is\/was] the date of the visit?","CDASH":"VISDAT","CDASHTYPE":"IG","SDTM":"SVSTDTC;SVENDTC","SDTMTYPE":"SANOFI","codename":null,"codelist":null,"class":"question","x":80.866,"y":614.671,"height":15.744,"width":61.92},{"pagenumber":4.0,"form":"Inclusion\/Exclusion","OID":"IE_NC","Domain":"SUPPDM;SUPPIE","order":2.0,"PreText":"Protocol Version","Question":null,"CDASH":"IEVERS","CDASHTYPE":"SANOFI","SDTM":"IEVERS","SDTMTYPE":"SANOFI","codename":"PROTVER","codelist":"ORIGINAL PROTOCOL;AMENDMENT 1;AMENDMENT 2;AMENDMENT 3;AMENDMENT 4;AMENDMENT 5;AMENDMENT 6;AMENDMENT 7;AMENDMENT 8;AMENDMENT 9;AMENDMENT 10;VERSION 1;VERSION 2;VERSION 3","class":"question","x":70.866,"y":666.671,"height":15.744,"width":81.6},{"pagenumber":4.0,"form":"Inclusion\/Exclusion","OID":"IE_NC","Domain":null,"order":3.0,"PreText":"Did the subject meet all eligibility criteria?","Question":"Were all eligibility criteria met?","CDASH":"IEYN","CDASHTYPE":"IG","SDTM":"","SDTMTYPE":"","codename":"NY_YN","codelist":"Y;N","class":"question","x":70.866,"y":439.671,"height":15.744,"width":205.632},{"pagenumber":4.0,"form":"Inclusion\/Exclusion","OID":"IE_NC","Domain":null,"order":4.0,"PreText":"If no, specify Criterion Category(ies) and Number(s).","Question":null,"CDASH":"PROMPT_IECAT_IETEST","CDASHTYPE":"SANOFI","SDTM":"","SDTMTYPE":"","codename":null,"codelist":null,"class":"question","x":70.866,"y":404.659,"height":15.948,"width":256.416},{"pagenumber":4.0,"form":"Inclusion\/Exclusion","OID":"IE_NC","Domain":"IE","order":5.0,"PreText":"Criterion Category","Question":"What was the category of the criterion?","CDASH":"IECAT","CDASHTYPE":"IG","SDTM":"IECAT","SDTMTYPE":"IG","codename":"IECAT","codelist":"EXCLUSION;INCLUSION","class":"question","x":70.866,"y":387.671,"height":15.744,"width":90.216},{"pagenumber":4.0,"form":"Inclusion\/Exclusion","OID":"IE_NC","Domain":null,"order":6.0,"PreText":"Criterion Number and Description","Question":null,"CDASH":"IETESTDS","CDASHTYPE":"SANOFI","SDTM":"","SDTMTYPE":"","codename":null,"codelist":null,"class":"question","x":70.866,"y":352.671,"height":15.744,"width":164.82},{"pagenumber":4.0,"form":"Inclusion\/Exclusion","OID":"IE_NC","Domain":"IE","order":7.0,"PreText":"Criterion Number","Question":"What was the identifier of the inclusion criterion the subject did not meet or the exclusion criterion the subject met ?","CDASH":"IETESTCD","CDASHTYPE":"IG","SDTM":"IETESTCD","SDTMTYPE":"IG","codename":null,"codelist":null,"class":"question","x":70.866,"y":335.671,"height":15.744,"width":85.572},{"pagenumber":4.0,"form":"Inclusion\/Exclusion","OID":"IE_NC","Domain":null,"order":8.0,"PreText":"Technical field for Dynamic searchlist needs","Question":null,"CDASH":"IETECHFLD","CDASHTYPE":"SANOFI","SDTM":"","SDTMTYPE":"","codename":"IE_TI","codelist":"TECHDUMVAL;ORIGINAL PROTOCOL#_#I01;ORIGINAL PROTOCOL#_#I02;ORIGINAL PROTOCOL#_#I03;ORIGINAL PROTOCOL#_#E01;ORIGINAL PROTOCOL#_#E02;ORIGINAL PROTOCOL#_#E03;ORIGINAL PROTOCOL#_#E04;ORIGINAL PROTOCOL#_#E05;ORIGINAL PROTOCOL#_#E06;ORIGINAL PROTOCOL#_#E07;ORIGINAL PROTOCOL#_#E08;ORIGINAL PROTOCOL#_#E09;ORIGINAL PROTOCOL#_#E10;ORIGINAL PROTOCOL#_#E11;ORIGINAL PROTOCOL#_#E12;ORIGINAL PROTOCOL#_#E13;ORIGINAL PROTOCOL#_#E14;ORIGINAL PROTOCOL#_#E15;ORIGINAL PROTOCOL#_#E16;ORIGINAL PROTOCOL#_#E17;ORIGINAL PROTOCOL#_#E18;ORIGINAL PROTOCOL#_#E19;ORIGINAL PROTOCOL#_#E20;ORIGINAL PROTOCOL#_#E21;ORIGINAL PROTOCOL#_#E22;ORIGINAL PROTOCOL#_#E23","class":"question","x":70.866,"y":318.671,"height":15.744,"width":214.68}]