[{"pagenumber":1.0,"form":"Subject Identifier","OID":"SUB_ID","Domain":null,"order":2.0,"PreText":"Subject Enrollment ID","Question":null,"CDASH":"ENRID","CDASHTYPE":"SANOFI","SDTM":"","SDTMTYPE":"","codename":null,"codelist":null,"class":"question","x":70.866,"y":666.671,"height":15.744,"width":108.54},{"pagenumber":1.0,"form":"Subject Identifier","OID":"SUB_ID","Domain":"DM","order":3.0,"PreText":"Subject Identifier for the Study","Question":"What is the subject identifier?","CDASH":"SUBJID","CDASHTYPE":"IG","SDTM":"DM.SUBJID","SDTMTYPE":"IG","codename":null,"codelist":null,"class":"question","x":70.866,"y":649.671,"height":15.744,"width":149.172},{"pagenumber":1.0,"form":"Subject Identifier","OID":"SUB_ID","Domain":null,"order":4.0,"PreText":"System Date","Question":null,"CDASH":"SYSDAT","CDASHTYPE":"SANOFI","SDTM":"","SDTMTYPE":"","codename":null,"codelist":null,"class":"question","x":70.866,"y":632.671,"height":15.744,"width":60.924},{"pagenumber":2.0,"form":"IVRS Library","OID":"IVRS_ALL","Domain":"SV","order":2.0,"PreText":"First Visit\/Screening Date","Question":"What [is\/was] the date of the visit?","CDASH":"VISDAT","CDASHTYPE":"IG","SDTM":"SVSTDTC;SVENDTC","SDTMTYPE":"SANOFI","codename":null,"codelist":null,"class":"question","x":70.866,"y":666.671,"height":15.744,"width":125.172},{"pagenumber":2.0,"form":"IVRS Library","OID":"IVRS_ALL","Domain":null,"order":3.0,"PreText":"First Run In Visit Date","Question":null,"CDASH":"DSRUDAT","CDASHTYPE":"SANOFI","SDTM":"","SDTMTYPE":"","codename":null,"codelist":null,"class":"question","x":70.866,"y":649.671,"height":15.744,"width":109.896},{"pagenumber":2.0,"form":"IVRS Library","OID":"IVRS_ALL","Domain":"IVRS","order":4.0,"PreText":"Visit Identifier","Question":null,"CDASH":"RDVISREF","CDASHTYPE":"SANOFI","SDTM":"RDVISREF","SDTMTYPE":"SANOFI","codename":null,"codelist":null,"class":"question","x":70.866,"y":632.671,"height":15.744,"width":70.896},{"pagenumber":2.0,"form":"IVRS Library","OID":"IVRS_ALL","Domain":"DS","order":5.0,"PreText":"Randomization Date\/First IMP Allocation Date","Question":"What was the [protocol milestone\/disposition event\/other event name] date?","CDASH":"DSSTDAT","CDASHTYPE":"IG","SDTM":"DSSTDTC","SDTMTYPE":"IG","codename":null,"codelist":null,"class":"question","x":70.866,"y":615.671,"height":15.744,"width":227.712},{"pagenumber":2.0,"form":"IVRS Library","OID":"IVRS_ALL","Domain":"DS","order":6.0,"PreText":"Randomization Time\/First IMP Allocation Time","Question":"What was the [protocol milestone\/disposition event\/other event name] time?","CDASH":"DSSTTIM","CDASHTYPE":"IG","SDTM":"DSSTDTC","SDTMTYPE":"IG","codename":null,"codelist":null,"class":"question","x":70.866,"y":598.671,"height":15.744,"width":233.04},{"pagenumber":2.0,"form":"IVRS Library","OID":"IVRS_ALL","Domain":"IVRS;RAND","order":7.0,"PreText":"Randomization Number","Question":null,"CDASH":"RDRAND","CDASHTYPE":"SANOFI","SDTM":"RDRAND","SDTMTYPE":"SANOFI","codename":null,"codelist":null,"class":"question","x":70.866,"y":581.671,"height":15.744,"width":115.536},{"pagenumber":2.0,"form":"IVRS Library","OID":"IVRS_ALL","Domain":"IVRS;RAND","order":8.0,"PreText":"Randomization Block Number","Question":null,"CDASH":"RDBLKNB","CDASHTYPE":"SANOFI","SDTM":"RDBLKNB","SDTMTYPE":"SANOFI","codename":null,"codelist":null,"class":"question","x":70.866,"y":564.671,"height":15.744,"width":147.168},{"pagenumber":2.0,"form":"IVRS Library","OID":"IVRS_ALL","Domain":"IVRS;RAND","order":9.0,"PreText":"Randomization Sequence Number","Question":null,"CDASH":"RDSEQNB","CDASHTYPE":"SANOFI","SDTM":"RDSEQNB","SDTMTYPE":"SANOFI","codename":null,"codelist":null,"class":"question","x":70.866,"y":547.671,"height":15.744,"width":164.472},{"pagenumber":2.0,"form":"IVRS Library","OID":"IVRS_ALL","Domain":"IVRS;RAND","order":10.0,"PreText":"Stratification Factor 1","Question":null,"CDASH":"RDSTRAT1","CDASHTYPE":"SANOFI","SDTM":"RDSTRAT1","SDTMTYPE":"SANOFI","codename":null,"codelist":null,"class":"question","x":70.866,"y":530.671,"height":15.744,"width":105.18},{"pagenumber":2.0,"form":"IVRS Library","OID":"IVRS_ALL","Domain":"IVRS;RAND","order":11.0,"PreText":"Stratification Factor 2","Question":null,"CDASH":"RDSTRAT2","CDASHTYPE":"SANOFI","SDTM":"RDSTRAT2","SDTMTYPE":"SANOFI","codename":null,"codelist":null,"class":"question","x":70.866,"y":513.671,"height":15.744,"width":105.18},{"pagenumber":2.0,"form":"IVRS Library","OID":"IVRS_ALL","Domain":"IVRS;RAND","order":12.0,"PreText":"Stratification Factor 3","Question":null,"CDASH":"RDSTRAT3","CDASHTYPE":"SANOFI","SDTM":"RDSTRAT3","SDTMTYPE":"SANOFI","codename":null,"codelist":null,"class":"question","x":70.866,"y":496.671,"height":15.744,"width":105.18},{"pagenumber":2.0,"form":"IVRS Library","OID":"IVRS_ALL","Domain":"IVRS;RAND","order":13.0,"PreText":"Stratification Factor 4","Question":null,"CDASH":"RDSTRAT4","CDASHTYPE":"SANOFI","SDTM":"RDSTRAT4","SDTMTYPE":"SANOFI","codename":null,"codelist":null,"class":"question","x":70.866,"y":479.671,"height":15.744,"width":105.18},{"pagenumber":2.0,"form":"IVRS Library","OID":"IVRS_ALL","Domain":"IVRS;RAND","order":14.0,"PreText":"Stratification Factor 5","Question":null,"CDASH":"RDSTRAT5","CDASHTYPE":"SANOFI","SDTM":"RDSTRAT5","SDTMTYPE":"SANOFI","codename":null,"codelist":null,"class":"question","x":70.866,"y":462.671,"height":15.744,"width":105.18},{"pagenumber":2.0,"form":"IVRS Library","OID":"IVRS_ALL","Domain":"IVRS","order":15.0,"PreText":"Treatment Number as Planned","Question":null,"CDASH":"RDTTNBX","CDASHTYPE":"SANOFI","SDTM":"RDTTNBX","SDTMTYPE":"SANOFI","codename":null,"codelist":null,"class":"question","x":70.866,"y":445.671,"height":15.744,"width":146.148},{"pagenumber":2.0,"form":"IVRS Library","OID":"IVRS_ALL","Domain":"IVRS;RAND","order":16.0,"PreText":"Treatment Arm as Planned","Question":null,"CDASH":"RDARM","CDASHTYPE":"SANOFI","SDTM":"RDARM","SDTMTYPE":"SANOFI","codename":null,"codelist":null,"class":"question","x":70.866,"y":428.671,"height":15.744,"width":128.832},{"pagenumber":2.0,"form":"IVRS Library","OID":"IVRS_ALL","Domain":"IVRS","order":17.0,"PreText":"Subgroup Information as Planned 1","Question":null,"CDASH":"RDGROUP1","CDASHTYPE":"SANOFI","SDTM":"RDGROUP1","SDTMTYPE":"SANOFI","codename":null,"codelist":null,"class":"question","x":70.866,"y":411.671,"height":15.744,"width":170.556},{"pagenumber":2.0,"form":"IVRS Library","OID":"IVRS_ALL","Domain":"IVRS","order":18.0,"PreText":"Subgroup Information as Planned 2","Question":null,"CDASH":"RDGROUP2","CDASHTYPE":"SANOFI","SDTM":"RDGROUP2","SDTMTYPE":"SANOFI","codename":null,"codelist":null,"class":"question","x":70.866,"y":394.671,"height":15.744,"width":170.556},{"pagenumber":2.0,"form":"IVRS Library","OID":"IVRS_ALL","Domain":"IVRS","order":19.0,"PreText":"Subgroup Information as Planned 3","Question":null,"CDASH":"RDGROUP3","CDASHTYPE":"SANOFI","SDTM":"RDGROUP3","SDTMTYPE":"SANOFI","codename":null,"codelist":null,"class":"question","x":70.866,"y":377.671,"height":15.744,"width":170.556},{"pagenumber":2.0,"form":"IVRS Library","OID":"IVRS_ALL","Domain":"IVRS","order":20.0,"PreText":"Treatment Side as Planned","Question":null,"CDASH":"RDSIDE","CDASHTYPE":"SANOFI","SDTM":"RDSIDE","SDTMTYPE":"SANOFI","codename":"LAT_01","codelist":"LEFT;RIGHT","class":"question","x":70.866,"y":360.671,"height":15.744,"width":128.16},{"pagenumber":2.0,"form":"IVRS Library","OID":"IVRS_ALL","Domain":"IVRS","order":21.0,"PreText":"Category for Treatment","Question":null,"CDASH":"RDTTCAT","CDASHTYPE":"SANOFI","SDTM":"RDTTCAT","SDTMTYPE":"SANOFI","codename":null,"codelist":null,"class":"question","x":70.866,"y":325.671,"height":15.744,"width":113.172},{"pagenumber":2.0,"form":"IVRS Library","OID":"IVRS_ALL","Domain":"IVRS","order":22.0,"PreText":"Date of Treatment Allocation","Question":null,"CDASH":"RDALDAT","CDASHTYPE":"SANOFI","SDTM":"RDALDTC","SDTMTYPE":"SANOFI","codename":null,"codelist":null,"class":"question","x":70.866,"y":308.671,"height":15.744,"width":141.444},{"pagenumber":2.0,"form":"IVRS Library","OID":"IVRS_ALL","Domain":"IVRS","order":23.0,"PreText":"Time of Treatment Allocation","Question":null,"CDASH":"RDALTIM","CDASHTYPE":"SANOFI","SDTM":"RDALDTC","SDTMTYPE":"SANOFI","codename":null,"codelist":null,"class":"question","x":70.866,"y":291.671,"height":15.744,"width":144.108},{"pagenumber":2.0,"form":"IVRS Library","OID":"IVRS_ALL","Domain":"IVRS","order":24.0,"PreText":"Date of Treatment Allocation (IVRS\/IWRS)","Question":null,"CDASH":"RDALGDAT","CDASHTYPE":"SANOFI","SDTM":"RDALGDTC","SDTMTYPE":"SANOFI","codename":null,"codelist":null,"class":"question","x":70.866,"y":274.671,"height":15.744,"width":213.06},{"pagenumber":2.0,"form":"IVRS Library","OID":"IVRS_ALL","Domain":"IVRS","order":25.0,"PreText":"Time of Treatment Allocation (IVRS\/IWRS)","Question":null,"CDASH":"RDALGTIM","CDASHTYPE":"SANOFI","SDTM":"RDALGDTC","SDTMTYPE":"SANOFI","codename":null,"codelist":null,"class":"question","x":70.866,"y":257.671,"height":15.744,"width":215.724},{"pagenumber":2.0,"form":"IVRS Library","OID":"IVRS_ALL","Domain":"IVRS","order":26.0,"PreText":"Is there a blind broken?","Question":null,"CDASH":"RDBKUNB","CDASHTYPE":"SANOFI","SDTM":"RDBKUNB","SDTMTYPE":"SANOFI","codename":null,"codelist":null,"class":"question","x":70.866,"y":240.671,"height":15.744,"width":113.208},{"pagenumber":2.0,"form":"IVRS Library","OID":"IVRS_ALL","Domain":"IVRS","order":27.0,"PreText":"Local Date of blind broken","Question":null,"CDASH":"RDBKDAT","CDASHTYPE":"SANOFI","SDTM":"RDBKDDTC","SDTMTYPE":"SANOFI","codename":null,"codelist":null,"class":"question","x":70.866,"y":223.671,"height":15.744,"width":129.852},{"pagenumber":2.0,"form":"IVRS Library","OID":"IVRS_ALL","Domain":"IVRS","order":28.0,"PreText":"Function of the blind breaker","Question":null,"CDASH":"RDBKWHO","CDASHTYPE":"SANOFI","SDTM":"RDBKWHO","SDTMTYPE":"SANOFI","codename":"DSCBWHOR","codelist":"ESMS;INVESTIGATOR;PHARMACIST;STUDY NURSE","class":"question","x":70.866,"y":206.671,"height":15.744,"width":139.86},{"pagenumber":2.0,"form":"IVRS Library","OID":"IVRS_ALL","Domain":null,"order":29.0,"PreText":"IVRS original export date and time","Question":null,"CDASH":"EXPRTDT","CDASHTYPE":"SANOFI","SDTM":"","SDTMTYPE":"","codename":null,"codelist":null,"class":"question","x":70.866,"y":139.671,"height":15.744,"width":168.804},{"pagenumber":2.0,"form":"IVRS Library","OID":"IVRS_ALL","Domain":null,"order":30.0,"PreText":"IVRS Transaction ID","Question":null,"CDASH":"RDSPID","CDASHTYPE":"SANOFI","SDTM":"","SDTMTYPE":"","codename":null,"codelist":null,"class":"question","x":70.866,"y":122.671,"height":15.744,"width":102.564},{"pagenumber":3.0,"form":"Visit Date","OID":"SV_01","Domain":null,"order":2.0,"PreText":"Was the visit performed?","Question":null,"CDASH":"VISYN","CDASHTYPE":"SANOFI","SDTM":"","SDTMTYPE":"","codename":"NY_YN","codelist":"Y;N","class":"question","x":70.866,"y":666.671,"height":15.744,"width":120.84},{"pagenumber":3.0,"form":"Visit Date","OID":"SV_01","Domain":null,"order":3.0,"PreText":"If yes, provide the date:","Question":null,"CDASH":"PROMPT_VISDAT","CDASHTYPE":"SANOFI","SDTM":"","SDTMTYPE":"","codename":null,"codelist":null,"class":"question","x":70.866,"y":631.659,"height":15.948,"width":113.52},{"pagenumber":3.0,"form":"Visit Date","OID":"SV_01","Domain":"SV","order":4.0,"PreText":"Date of Visit","Question":"What [is\/was] the date of the visit?","CDASH":"VISDAT","CDASHTYPE":"IG","SDTM":"SVSTDTC;SVENDTC","SDTMTYPE":"SANOFI","codename":null,"codelist":null,"class":"question","x":80.866,"y":614.671,"height":15.744,"width":61.92},{"pagenumber":4.0,"form":"Inclusion\/Exclusion","OID":"IE_NC","Domain":"SUPPDM;SUPPIE","order":2.0,"PreText":"Protocol Version","Question":null,"CDASH":"IEVERS","CDASHTYPE":"SANOFI","SDTM":"IEVERS","SDTMTYPE":"SANOFI","codename":"PROTVER","codelist":"ORIGINAL PROTOCOL;AMENDMENT 1;AMENDMENT 2;AMENDMENT 3;AMENDMENT 4;AMENDMENT 5;AMENDMENT 6;AMENDMENT 7;AMENDMENT 8;AMENDMENT 9;AMENDMENT 10;VERSION 1;VERSION 2;VERSION 3","class":"question","x":70.866,"y":666.671,"height":15.744,"width":81.6},{"pagenumber":4.0,"form":"Inclusion\/Exclusion","OID":"IE_NC","Domain":null,"order":3.0,"PreText":"Did the subject meet all eligibility criteria?","Question":"Were all eligibility criteria met?","CDASH":"IEYN","CDASHTYPE":"IG","SDTM":"","SDTMTYPE":"","codename":"NY_YN","codelist":"Y;N","class":"question","x":70.866,"y":439.671,"height":15.744,"width":205.632},{"pagenumber":4.0,"form":"Inclusion\/Exclusion","OID":"IE_NC","Domain":null,"order":4.0,"PreText":"If no, specify Criterion Category(ies) and Number(s).","Question":null,"CDASH":"PROMPT_IECAT_IETEST","CDASHTYPE":"SANOFI","SDTM":"","SDTMTYPE":"","codename":null,"codelist":null,"class":"question","x":70.866,"y":404.659,"height":15.948,"width":256.416},{"pagenumber":4.0,"form":"Inclusion\/Exclusion","OID":"IE_NC","Domain":"IE","order":5.0,"PreText":"Criterion Category","Question":"What was the category of the criterion?","CDASH":"IECAT","CDASHTYPE":"IG","SDTM":"IECAT","SDTMTYPE":"IG","codename":"IECAT","codelist":"EXCLUSION;INCLUSION","class":"question","x":70.866,"y":387.671,"height":15.744,"width":90.216},{"pagenumber":4.0,"form":"Inclusion\/Exclusion","OID":"IE_NC","Domain":null,"order":6.0,"PreText":"Criterion Number and Description","Question":null,"CDASH":"IETESTDS","CDASHTYPE":"SANOFI","SDTM":"","SDTMTYPE":"","codename":null,"codelist":null,"class":"question","x":70.866,"y":352.671,"height":15.744,"width":164.82},{"pagenumber":4.0,"form":"Inclusion\/Exclusion","OID":"IE_NC","Domain":"IE","order":7.0,"PreText":"Criterion Number","Question":"What was the identifier of the inclusion criterion the subject did not meet or the exclusion criterion the subject met ?","CDASH":"IETESTCD","CDASHTYPE":"IG","SDTM":"IETESTCD","SDTMTYPE":"IG","codename":null,"codelist":null,"class":"question","x":70.866,"y":335.671,"height":15.744,"width":85.572},{"pagenumber":4.0,"form":"Inclusion\/Exclusion","OID":"IE_NC","Domain":null,"order":8.0,"PreText":"Technical field for Dynamic searchlist needs","Question":null,"CDASH":"IETECHFLD","CDASHTYPE":"SANOFI","SDTM":"","SDTMTYPE":"","codename":"IE_TI","codelist":"TECHDUMVAL;ORIGINAL PROTOCOL#_#I01;ORIGINAL PROTOCOL#_#I02;ORIGINAL PROTOCOL#_#I03;ORIGINAL PROTOCOL#_#E01;ORIGINAL PROTOCOL#_#E02;ORIGINAL PROTOCOL#_#E03;ORIGINAL PROTOCOL#_#E04;ORIGINAL PROTOCOL#_#E05;ORIGINAL PROTOCOL#_#E06;ORIGINAL PROTOCOL#_#E07;ORIGINAL PROTOCOL#_#E08;ORIGINAL PROTOCOL#_#E09;ORIGINAL PROTOCOL#_#E10;ORIGINAL PROTOCOL#_#E11;ORIGINAL PROTOCOL#_#E12;ORIGINAL PROTOCOL#_#E13;ORIGINAL PROTOCOL#_#E14;ORIGINAL PROTOCOL#_#E15;ORIGINAL PROTOCOL#_#E16;ORIGINAL PROTOCOL#_#E17;ORIGINAL PROTOCOL#_#E18;ORIGINAL PROTOCOL#_#E19;ORIGINAL PROTOCOL#_#E20;ORIGINAL PROTOCOL#_#E21;ORIGINAL PROTOCOL#_#E22;ORIGINAL PROTOCOL#_#E23","class":"question","x":70.866,"y":318.671,"height":15.744,"width":214.68},{"pagenumber":8.0,"form":"Informed Consent Date","OID":"DS_IC_DAT","Domain":null,"order":2.0,"PreText":"Informed Consent","Question":null,"CDASH":"PROMPT_DSDECOD","CDASHTYPE":"SANOFI","SDTM":"","SDTMTYPE":"","codename":null,"codelist":null,"class":"question","x":70.866,"y":666.659,"height":15.948,"width":86.268},{"pagenumber":8.0,"form":"Informed Consent Date","OID":"DS_IC_DAT","Domain":"DS","order":3.0,"PreText":"INFORMED CONSENT OBTAINED","Question":"What was the subject's status?","CDASH":"DSDECOD","CDASHTYPE":"IG","SDTM":"DSDECOD","SDTMTYPE":"IG","codename":"INFCST","codelist":"INFORMED ASSENT OBTAINED FROM JUVENILE;INFORMED CONSENT OBTAINED;INFORMED CONSENT OBTAINED FOR ARCHIVED BIOPSY;INFORMED CONSENT OBTAINED FOR ARCHIVED BLOOD SAMPLES;INFORMED CONSENT OBTAINED FOR CHILD REACHING AGE OF MAJORITY;INFORMED CONSENT OBTAINED FOR DRUG METABOLISM ENZYME;INFORMED CONSENT OBTAINED FOR FRESH BIOPSY;INFORMED CONSENT OBTAINED FOR HIV TESTING;INFORMED CONSENT OBTAINED FOR PHARMACOGENETIC ANALYSIS;INFORMED CONSENT OBTAINED FOR PHARMACOGENETIC BANKING;INFORMED CONSENT OBTAINED FOR PHARMACOGENOMIC;INFORMED CONSENT OBTAINED FOR PHARMACOKINETICS;INFORMED CONSENT OBTAINED FOR STUDY;INFORMED CONSENT OBTAINED FOR USE OF DATA AND SAMPLES FOR FUTURE RESEARCH;INFORMED CONSENT OBTAINED TO PERFORM AUTOPSY;INFORMED CONSENT OBTAINED TO PERFORM HEFH GENOTYPING;INFORMED CONSENT OBTAINED TO USE PREVIOUS HEFH GENOTYPING","class":"question","x":70.866,"y":649.671,"height":15.744,"width":185.22},{"pagenumber":8.0,"form":"Informed Consent Date","OID":"DS_IC_DAT","Domain":"DS","order":3.0,"PreText":"INFORMED CONSENT OBTAINED","Question":"What was the subject's status?; If [DSDECOD], specify","CDASH":"DSTERM","CDASHTYPE":"IG","SDTM":"DSTERM","SDTMTYPE":"IG","codename":null,"codelist":null,"class":"question","x":70.866,"y":649.671,"height":15.744,"width":185.22},{"pagenumber":8.0,"form":"Informed Consent Date","OID":"DS_IC_DAT","Domain":"DS","order":4.0,"PreText":"INFORMED CONSENT OBTAINED","Question":"What was the subject's status?","CDASH":"DSDECOD","CDASHTYPE":"IG","SDTM":"DSDECOD","SDTMTYPE":"IG","codename":"INFCST","codelist":"INFORMED ASSENT OBTAINED FROM JUVENILE;INFORMED CONSENT OBTAINED;INFORMED CONSENT OBTAINED FOR ARCHIVED BIOPSY;INFORMED CONSENT OBTAINED FOR ARCHIVED BLOOD SAMPLES;INFORMED CONSENT OBTAINED FOR CHILD REACHING AGE OF MAJORITY;INFORMED CONSENT OBTAINED FOR DRUG METABOLISM ENZYME;INFORMED CONSENT OBTAINED FOR FRESH BIOPSY;INFORMED CONSENT OBTAINED FOR HIV TESTING;INFORMED CONSENT OBTAINED FOR PHARMACOGENETIC ANALYSIS;INFORMED CONSENT OBTAINED FOR PHARMACOGENETIC BANKING;INFORMED CONSENT OBTAINED FOR PHARMACOGENOMIC;INFORMED CONSENT OBTAINED FOR PHARMACOKINETICS;INFORMED CONSENT OBTAINED FOR STUDY;INFORMED CONSENT OBTAINED FOR USE OF DATA AND SAMPLES FOR FUTURE RESEARCH;INFORMED CONSENT OBTAINED TO PERFORM AUTOPSY;INFORMED CONSENT OBTAINED TO PERFORM HEFH GENOTYPING;INFORMED CONSENT OBTAINED TO USE PREVIOUS HEFH GENOTYPING","class":"question","x":70.866,"y":140.671,"height":15.744,"width":185.22},{"pagenumber":8.0,"form":"Informed Consent Date","OID":"DS_IC_DAT","Domain":"DS","order":4.0,"PreText":"INFORMED CONSENT OBTAINED","Question":"What was the subject's status?; If [DSDECOD], specify","CDASH":"DSTERM","CDASHTYPE":"IG","SDTM":"DSTERM","SDTMTYPE":"IG","codename":null,"codelist":null,"class":"question","x":70.866,"y":140.671,"height":15.744,"width":185.22},{"pagenumber":8.0,"form":"Informed Consent Date","OID":"DS_IC_DAT","Domain":"DS","order":5.0,"PreText":"Date of Informed Consent","Question":"What was the [protocol milestone\/disposition event\/other event name] date?","CDASH":"DSSTDAT","CDASHTYPE":"IG","SDTM":"DSSTDTC","SDTMTYPE":"IG","codename":null,"codelist":null,"class":"question","x":70.866,"y":109.671,"height":15.744,"width":125.544},{"pagenumber":9.0,"form":"Informed Consent for Future Use of Data and Samples","OID":"DS_IC_FUTURE","Domain":"DS","order":2.0,"PreText":"INFORMED CONSENT OBTAINED","Question":"What was the subject's status?","CDASH":"DSDECOD","CDASHTYPE":"IG","SDTM":"DSDECOD","SDTMTYPE":"IG","codename":"INFCST","codelist":"INFORMED ASSENT OBTAINED FROM JUVENILE;INFORMED CONSENT OBTAINED;INFORMED CONSENT OBTAINED FOR ARCHIVED BIOPSY;INFORMED CONSENT OBTAINED FOR ARCHIVED BLOOD SAMPLES;INFORMED CONSENT OBTAINED FOR CHILD REACHING AGE OF MAJORITY;INFORMED CONSENT OBTAINED FOR DRUG METABOLISM ENZYME;INFORMED CONSENT OBTAINED FOR FRESH BIOPSY;INFORMED CONSENT OBTAINED FOR HIV TESTING;INFORMED CONSENT OBTAINED FOR PHARMACOGENETIC ANALYSIS;INFORMED CONSENT OBTAINED FOR PHARMACOGENETIC BANKING;INFORMED CONSENT OBTAINED FOR PHARMACOGENOMIC;INFORMED CONSENT OBTAINED FOR PHARMACOKINETICS;INFORMED CONSENT OBTAINED FOR STUDY;INFORMED CONSENT OBTAINED FOR USE OF DATA AND SAMPLES FOR FUTURE RESEARCH;INFORMED CONSENT OBTAINED TO PERFORM AUTOPSY;INFORMED CONSENT OBTAINED TO PERFORM HEFH GENOTYPING;INFORMED CONSENT OBTAINED TO USE PREVIOUS HEFH GENOTYPING","class":"question","x":70.866,"y":666.671,"height":15.744,"width":185.22},{"pagenumber":9.0,"form":"Informed Consent for Future Use of Data and Samples","OID":"DS_IC_FUTURE","Domain":"DS","order":2.0,"PreText":"INFORMED CONSENT OBTAINED","Question":"What was the subject's status?; If [DSDECOD], specify","CDASH":"DSTERM","CDASHTYPE":"IG","SDTM":"DSTERM","SDTMTYPE":"IG","codename":null,"codelist":null,"class":"question","x":70.866,"y":666.671,"height":15.744,"width":185.22},{"pagenumber":9.0,"form":"Informed Consent for Future Use of Data and Samples","OID":"DS_IC_FUTURE","Domain":"DS","order":3.0,"PreText":"INFORMED CONSENT OBTAINED","Question":"What was the subject's status?","CDASH":"DSDECOD","CDASHTYPE":"IG","SDTM":"DSDECOD","SDTMTYPE":"IG","codename":"INFCST","codelist":"INFORMED ASSENT OBTAINED FROM JUVENILE;INFORMED CONSENT OBTAINED;INFORMED CONSENT OBTAINED FOR ARCHIVED BIOPSY;INFORMED CONSENT OBTAINED FOR ARCHIVED BLOOD SAMPLES;INFORMED CONSENT OBTAINED FOR CHILD REACHING AGE OF MAJORITY;INFORMED CONSENT OBTAINED FOR DRUG METABOLISM ENZYME;INFORMED CONSENT OBTAINED FOR FRESH BIOPSY;INFORMED CONSENT OBTAINED FOR HIV TESTING;INFORMED CONSENT OBTAINED FOR PHARMACOGENETIC ANALYSIS;INFORMED CONSENT OBTAINED FOR PHARMACOGENETIC BANKING;INFORMED CONSENT OBTAINED FOR PHARMACOGENOMIC;INFORMED CONSENT OBTAINED FOR PHARMACOKINETICS;INFORMED CONSENT OBTAINED FOR STUDY;INFORMED CONSENT OBTAINED FOR USE OF DATA AND SAMPLES FOR FUTURE RESEARCH;INFORMED CONSENT OBTAINED TO PERFORM AUTOPSY;INFORMED CONSENT OBTAINED TO PERFORM HEFH GENOTYPING;INFORMED CONSENT OBTAINED TO USE PREVIOUS HEFH GENOTYPING","class":"question","x":70.866,"y":157.671,"height":15.744,"width":185.22},{"pagenumber":9.0,"form":"Informed Consent for Future Use of Data and Samples","OID":"DS_IC_FUTURE","Domain":"DS","order":3.0,"PreText":"INFORMED CONSENT OBTAINED","Question":"What was the subject's status?; If [DSDECOD], specify","CDASH":"DSTERM","CDASHTYPE":"IG","SDTM":"DSTERM","SDTMTYPE":"IG","codename":null,"codelist":null,"class":"question","x":70.866,"y":157.671,"height":15.744,"width":185.22},{"pagenumber":9.0,"form":"Informed Consent for Future Use of Data and Samples","OID":"DS_IC_FUTURE","Domain":null,"order":4.0,"PreText":"Informed Consent Obtained for Use of Data and Samples for Future Research?","Question":null,"CDASH":"DSYN","CDASHTYPE":"SANOFI","SDTM":"","SDTMTYPE":"","codename":null,"codelist":null,"class":"question","x":70.866,"y":98.671,"height":15.744,"width":292.056},{"pagenumber":10.0,"form":"Demographics","OID":"DM_DOB","Domain":null,"order":13.0,"PreText":"Year of Birth","Question":null,"CDASH":"BRTHYR","CDASHTYPE":"SANOFI","SDTM":"","SDTMTYPE":"","codename":null,"codelist":null,"class":"question","x":70.866,"y":666.671,"height":15.744,"width":63.924},{"pagenumber":10.0,"form":"Demographics","OID":"DM_DOB","Domain":null,"order":14.0,"PreText":"Date of Birth","Question":null,"CDASH":"BRTHDTYM","CDASHTYPE":"SANOFI","SDTM":"","SDTMTYPE":"","codename":null,"codelist":null,"class":"question","x":70.866,"y":649.671,"height":15.744,"width":63.252},{"pagenumber":10.0,"form":"Demographics","OID":"DM_DOB","Domain":null,"order":14.0,"PreText":"Date of Birth","Question":null,"CDASH":"BRTHDATC","CDASHTYPE":"SANOFI","SDTM":"","SDTMTYPE":"","codename":null,"codelist":null,"class":"question","x":70.866,"y":649.671,"height":15.744,"width":63.252},{"pagenumber":10.0,"form":"Demographics","OID":"DM_DOB","Domain":"BR","order":14.0,"PreText":"Date of Birth","Question":"What is the subject's date of birth?","CDASH":"BRTHDAT","CDASHTYPE":"IG","SDTM":"BRTHDTC","SDTMTYPE":"IG","codename":null,"codelist":null,"class":"question","x":70.866,"y":649.671,"height":15.744,"width":63.252},{"pagenumber":10.0,"form":"Demographics","OID":"DM_DOB","Domain":null,"order":15.0,"PreText":"Age","Question":null,"CDASH":"AGEC","CDASHTYPE":"SANOFI","SDTM":"","SDTMTYPE":"","codename":null,"codelist":null,"class":"question","x":70.866,"y":632.671,"height":15.744,"width":19.98},{"pagenumber":10.0,"form":"Demographics","OID":"DM_DOB","Domain":"AG","order":15.0,"PreText":"Age","Question":"What is the subject's age?","CDASH":"AGE","CDASHTYPE":"IG","SDTM":"AGE","SDTMTYPE":"IG","codename":null,"codelist":null,"class":"question","x":70.866,"y":632.671,"height":15.744,"width":19.98},{"pagenumber":10.0,"form":"Demographics","OID":"DM_DOB","Domain":null,"order":16.0,"PreText":"Age","Question":null,"CDASH":"AGEC","CDASHTYPE":"SANOFI","SDTM":"","SDTMTYPE":"","codename":null,"codelist":null,"class":"question","x":70.866,"y":615.671,"height":15.744,"width":19.98},{"pagenumber":10.0,"form":"Demographics","OID":"DM_DOB","Domain":"AG","order":16.0,"PreText":"Age","Question":"What is the subject's age?","CDASH":"AGE","CDASHTYPE":"IG","SDTM":"AGE","SDTMTYPE":"IG","codename":null,"codelist":null,"class":"question","x":70.866,"y":615.671,"height":15.744,"width":19.98},{"pagenumber":10.0,"form":"Demographics","OID":"DM_DOB","Domain":"AG","order":17.0,"PreText":"Unit","Question":"What is the age unit used?","CDASH":"AGEU","CDASHTYPE":"IG","SDTM":"AGEU","SDTMTYPE":"IG","codename":"AGEU","codelist":"HOURS;DAYS;WEEKS;MONTHS;YEARS","class":"question","x":70.866,"y":598.671,"height":15.744,"width":21.312},{"pagenumber":10.0,"form":"Demographics","OID":"DM_DOB","Domain":"SE","order":18.0,"PreText":"Sex","Question":"What is the sex of the subject?","CDASH":"SEX","CDASHTYPE":"IG","SDTM":"SEX","SDTMTYPE":"IG","codename":"SEX","codelist":"M;F","class":"question","x":70.866,"y":515.671,"height":15.744,"width":17.988},{"pagenumber":10.0,"form":"Demographics","OID":"DM_DOB","Domain":"ET","order":19.0,"PreText":"Ethnicity","Question":"Do you consider yourself Hispanic\/Latino or not Hispanic\/Latino?","CDASH":"ETHNIC","CDASHTYPE":"IG","SDTM":"ETHNIC","SDTMTYPE":"IG","codename":"ETHNIC","codelist":"HISPANIC OR LATINO;NOT HISPANIC OR LATINO;NOT REPORTED;UNKNOWN","class":"question","x":70.866,"y":480.671,"height":15.744,"width":43.932},{"pagenumber":10.0,"form":"Demographics","OID":"DM_DOB","Domain":null,"order":20.0,"PreText":"Race (Check all that apply):","Question":null,"CDASH":"PROMPT_RACE","CDASHTYPE":"SANOFI","SDTM":"","SDTMTYPE":"","codename":null,"codelist":null,"class":"question","x":70.866,"y":413.659,"height":15.948,"width":135.816},{"pagenumber":10.0,"form":"Demographics","OID":"DM_DOB","Domain":"DM","order":21.0,"PreText":"American Indian or Alaska Native","Question":null,"CDASH":"RAIAN","CDASHTYPE":"SANOFI","SDTM":"RACE","SDTMTYPE":"SANOFI","codename":null,"codelist":null,"class":"question","x":80.866,"y":396.671,"height":15.744,"width":165.12},{"pagenumber":10.0,"form":"Demographics","OID":"DM_DOB","Domain":"DM","order":22.0,"PreText":"Black or African American","Question":null,"CDASH":"RBLACK","CDASHTYPE":"SANOFI","SDTM":"RACE","SDTMTYPE":"SANOFI","codename":null,"codelist":null,"class":"question","x":80.866,"y":379.671,"height":15.744,"width":130.812},{"pagenumber":10.0,"form":"Demographics","OID":"DM_DOB","Domain":"DM","order":23.0,"PreText":"Native Hawaiian or Other Pacific Islander","Question":null,"CDASH":"RNHOPI","CDASHTYPE":"SANOFI","SDTM":"RACE","SDTMTYPE":"SANOFI","codename":null,"codelist":null,"class":"question","x":80.866,"y":362.671,"height":15.744,"width":202.044},{"pagenumber":10.0,"form":"Demographics","OID":"DM_DOB","Domain":"DM","order":24.0,"PreText":"White","Question":null,"CDASH":"RWHITE","CDASHTYPE":"SANOFI","SDTM":"RACE","SDTMTYPE":"SANOFI","codename":null,"codelist":null,"class":"question","x":80.866,"y":345.671,"height":15.744,"width":29.28},{"pagenumber":10.0,"form":"Demographics","OID":"DM_DOB","Domain":"DM","order":25.0,"PreText":"Asian","Question":null,"CDASH":"RASIAN","CDASHTYPE":"SANOFI","SDTM":"RACE","SDTMTYPE":"SANOFI","codename":null,"codelist":null,"class":"question","x":80.866,"y":328.671,"height":15.744,"width":27.972},{"pagenumber":10.0,"form":"Demographics","OID":"DM_DOB","Domain":"DM","order":26.0,"PreText":"Not Reported","Question":null,"CDASH":"RNREP","CDASHTYPE":"SANOFI","SDTM":"RACE","SDTMTYPE":"SANOFI","codename":null,"codelist":null,"class":"question","x":80.866,"y":311.671,"height":15.744,"width":64.932},{"pagenumber":10.0,"form":"Demographics","OID":"DM_DOB","Domain":null,"order":26.0,"PreText":"Not Reported","Question":null,"CDASH":"RANREP","CDASHTYPE":"SANOFI","SDTM":"","SDTMTYPE":"","codename":null,"codelist":null,"class":"question","x":80.866,"y":311.671,"height":15.744,"width":64.932},{"pagenumber":10.0,"form":"Demographics","OID":"DM_DOB","Domain":"DM","order":27.0,"PreText":"Unknown","Question":null,"CDASH":"RUNK","CDASHTYPE":"SANOFI","SDTM":"RACE","SDTMTYPE":"SANOFI","codename":null,"codelist":null,"class":"question","x":80.866,"y":294.671,"height":15.744,"width":47.328},{"pagenumber":10.0,"form":"Demographics","OID":"DM_DOB","Domain":null,"order":27.0,"PreText":"Unknown","Question":null,"CDASH":"RAUNK","CDASHTYPE":"SANOFI","SDTM":"","SDTMTYPE":"","codename":null,"codelist":null,"class":"question","x":80.866,"y":294.671,"height":15.744,"width":47.328},{"pagenumber":10.0,"form":"Demographics","OID":"DM_DOB","Domain":null,"order":28.0,"PreText":"If Asian, specify the origin reported by the subject. Check all that apply.","Question":null,"CDASH":"PROMPT_ASIAN","CDASHTYPE":"SANOFI","SDTM":"","SDTMTYPE":"","codename":null,"codelist":null,"class":"question","x":80.866,"y":277.659,"height":15.948,"width":345.924},{"pagenumber":10.0,"form":"Demographics","OID":"DM_DOB","Domain":null,"order":29.0,"PreText":"Chinese","Question":null,"CDASH":"RCHINESE","CDASHTYPE":"SANOFI","SDTM":"","SDTMTYPE":"","codename":null,"codelist":null,"class":"question","x":70.866,"y":260.671,"height":15.744,"width":38.616},{"pagenumber":10.0,"form":"Demographics","OID":"DM_DOB","Domain":null,"order":30.0,"PreText":"Japanese","Question":null,"CDASH":"RJAPAN","CDASHTYPE":"SANOFI","SDTM":"","SDTMTYPE":"","codename":null,"codelist":null,"class":"question","x":80.866,"y":243.671,"height":15.744,"width":42.6},{"pagenumber":10.0,"form":"Demographics","OID":"DM_DOB","Domain":null,"order":31.0,"PreText":"Asian Indian","Question":null,"CDASH":"RAINDIAN","CDASHTYPE":"SANOFI","SDTM":"","SDTMTYPE":"","codename":null,"codelist":null,"class":"question","x":80.866,"y":226.671,"height":15.744,"width":61.608},{"pagenumber":10.0,"form":"Demographics","OID":"DM_DOB","Domain":null,"order":32.0,"PreText":"Korean","Question":null,"CDASH":"RKOREAN","CDASHTYPE":"SANOFI","SDTM":"","SDTMTYPE":"","codename":null,"codelist":null,"class":"question","x":80.866,"y":209.671,"height":15.744,"width":35.292},{"pagenumber":10.0,"form":"Demographics","OID":"DM_DOB","Domain":null,"order":33.0,"PreText":"Other Asian Origin","Question":null,"CDASH":"RAOTHER","CDASHTYPE":"SANOFI","SDTM":"","SDTMTYPE":"","codename":null,"codelist":null,"class":"question","x":80.866,"y":192.671,"height":15.744,"width":92.58},{"pagenumber":10.0,"form":"Demographics","OID":"DM_DOB","Domain":null,"order":34.0,"PreText":"If Other, Specify.","Question":null,"CDASH":"RAOTHSP","CDASHTYPE":"SANOFI","SDTM":"","SDTMTYPE":"","codename":null,"codelist":null,"class":"question","x":80.866,"y":175.671,"height":15.744,"width":83.916},{"pagenumber":10.0,"form":"Demographics","OID":"DM_DOB","Domain":"DM","order":35.0,"PreText":"Not Reported","Question":null,"CDASH":"RNREP","CDASHTYPE":"SANOFI","SDTM":"RACE","SDTMTYPE":"SANOFI","codename":null,"codelist":null,"class":"question","x":80.866,"y":158.671,"height":15.744,"width":64.932},{"pagenumber":10.0,"form":"Demographics","OID":"DM_DOB","Domain":null,"order":35.0,"PreText":"Not Reported","Question":null,"CDASH":"RANREP","CDASHTYPE":"SANOFI","SDTM":"","SDTMTYPE":"","codename":null,"codelist":null,"class":"question","x":80.866,"y":158.671,"height":15.744,"width":64.932},{"pagenumber":10.0,"form":"Demographics","OID":"DM_DOB","Domain":"DM","order":36.0,"PreText":"Unknown","Question":null,"CDASH":"RUNK","CDASHTYPE":"SANOFI","SDTM":"RACE","SDTMTYPE":"SANOFI","codename":null,"codelist":null,"class":"question","x":80.866,"y":141.671,"height":15.744,"width":47.328},{"pagenumber":10.0,"form":"Demographics","OID":"DM_DOB","Domain":null,"order":36.0,"PreText":"Unknown","Question":null,"CDASH":"RAUNK","CDASHTYPE":"SANOFI","SDTM":"","SDTMTYPE":"","codename":null,"codelist":null,"class":"question","x":80.866,"y":141.671,"height":15.744,"width":47.328},{"pagenumber":11.0,"form":"Influenza Like Illness","OID":"CE_VAC_ILI","Domain":"CE","order":2.0,"PreText":"Category for Clinical Event","Question":"What is the category of the clinical event?","CDASH":"CECAT","CDASHTYPE":"IG","SDTM":"CECAT","SDTMTYPE":"IG","codename":"CECAT","codelist":"ALLERGIC REACTION;BONE FRACTURE;HYPERSENSITIVITY\/ALLERGIC REACTION;HYPOGLYCEMIC EVENTS;HYPOGLYCEMIC SYMPTOMS;INJECTION SITE REACTION;MULTIPLE SCLEROSIS;NEUROLOGIC DISORDER;SUSPECTED DENGUE EVENT;SUSPECTED OR CONFIRMED CEREBROVASCULAR EVENT;SUSPECTED OR CONFIRMED DIABETIC KETOACIDOSIS;SUSPECTED OR CONFIRMED HEART FAILURE;SUSPECTED OR CONFIRMED MYOCARDIAL INFARCTION \/ UNSTABLE ANGINA;SUSPECTED INFLUENZA EVENT","class":"question","x":70.866,"y":666.671,"height":15.744,"width":132.816},{"pagenumber":11.0,"form":"Influenza Like Illness","OID":"CE_VAC_ILI","Domain":null,"order":23.0,"PreText":"Did the subject experience any Influenza Like Illness since last visit?","Question":"Were any clinical events experienced?","CDASH":"CEYN","CDASHTYPE":"IG","SDTM":"","SDTMTYPE":"","codename":null,"codelist":null,"class":"question","x":70.866,"y":365.671,"height":15.744,"width":302.568},{"pagenumber":11.0,"form":"Influenza Like Illness","OID":"CE_VAC_ILI","Domain":null,"order":27.0,"PreText":"If the subject experienced influenza like illness, provide all the action taken.  If not, leave all the fields blank.","Question":null,"CDASH":"PROMPT_CE","CDASHTYPE":"SANOFI","SDTM":"","SDTMTYPE":"","codename":null,"codelist":null,"class":"question","x":70.866,"y":330.671,"height":15.744,"width":461.328},{"pagenumber":11.0,"form":"Influenza Like Illness","OID":"CE_VAC_ILI","Domain":"CE","order":29.0,"PreText":"Episode ID","Question":"What is the clinical event identifier?","CDASH":"CESPID","CDASHTYPE":"IG","SDTM":"CESPID","SDTMTYPE":"IG","codename":null,"codelist":null,"class":"question","x":70.866,"y":296.671,"height":15.744,"width":54.288},{"pagenumber":11.0,"form":"Influenza Like Illness","OID":"CE_VAC_ILI","Domain":"CE","order":30.0,"PreText":"Clinical Event Term","Question":"What is the clinical event term?","CDASH":"CETERM","CDASHTYPE":"IG","SDTM":"CETERM","SDTMTYPE":"IG","codename":null,"codelist":null,"class":"question","x":70.866,"y":279.671,"height":15.744,"width":97.836},{"pagenumber":11.0,"form":"Influenza Like Illness","OID":"CE_VAC_ILI","Domain":"CE","order":31.0,"PreText":"Pre-specified?","Question":null,"CDASH":"CEPRESP","CDASHTYPE":"IG","SDTM":"CEPRESP","SDTMTYPE":"IG","codename":"NY_YN","codelist":"Y;N","class":"question","x":70.866,"y":262.671,"height":15.744,"width":68.556},{"pagenumber":11.0,"form":"Influenza Like Illness","OID":"CE_VAC_ILI","Domain":null,"order":35.0,"PreText":"Medication","Question":null,"CDASH":"CEACMED","CDASHTYPE":"SANOFI","SDTM":"","SDTMTYPE":"","codename":null,"codelist":null,"class":"question","x":70.866,"y":227.671,"height":15.744,"width":54.588},{"pagenumber":11.0,"form":"Influenza Like Illness","OID":"CE_VAC_ILI","Domain":null,"order":36.0,"PreText":"Health Care Visit","Question":null,"CDASH":"CEACTHC","CDASHTYPE":"SANOFI","SDTM":"","SDTMTYPE":"","codename":null,"codelist":null,"class":"question","x":70.866,"y":210.671,"height":15.744,"width":83.868},{"pagenumber":11.0,"form":"Influenza Like Illness","OID":"CE_VAC_ILI","Domain":null,"order":37.0,"PreText":"Hospitalized","Question":null,"CDASH":"CEACTHO","CDASHTYPE":"SANOFI","SDTM":"","SDTMTYPE":"","codename":null,"codelist":null,"class":"question","x":70.866,"y":193.671,"height":15.744,"width":60.576},{"pagenumber":11.0,"form":"Influenza Like Illness","OID":"CE_VAC_ILI","Domain":null,"order":38.0,"PreText":"No Action Taken","Question":null,"CDASH":"CEACTN","CDASHTYPE":"SANOFI","SDTM":"","SDTMTYPE":"","codename":null,"codelist":null,"class":"question","x":70.866,"y":176.671,"height":15.744,"width":83.244},{"pagenumber":11.0,"form":"Influenza Like Illness","OID":"CE_VAC_ILI","Domain":null,"order":39.0,"PreText":"Duration","Question":null,"CDASH":"CEDUR","CDASHTYPE":"SANOFI","SDTM":"","SDTMTYPE":"","codename":null,"codelist":null,"class":"question","x":70.866,"y":159.671,"height":15.744,"width":42.624},{"pagenumber":11.0,"form":"Influenza Like Illness","OID":"CE_VAC_ILI","Domain":null,"order":40.0,"PreText":"Duration Unit","Question":null,"CDASH":"CEDURU","CDASHTYPE":"SANOFI","SDTM":"","SDTMTYPE":"","codename":"UNIT","codelist":"%;% INHIBITION;%(v\/v);%(w\/v);%(w\/w);%\/min;%cells\/area;\/100 HPFs;\/100 WBC;\/10^3 cells;\/HPF;\/L;\/LPF;\/VF;\/dL;\/day;\/h;\/kg;\/mL;\/mm3;\/month;\/nL;\/pL;\/uL;\/wk;\/year;1\/dilution;100 IU\/mL;10^10\/L;10^11\/L;10^12 IU\/L;10^12\/L;10^3 CFU;10^3 CFU\/g;10^3 CFU\/mL;10^3 DNA copies\/mL;10^3 RNA copies\/mL;10^3 copies\/mL;10^3 organisms;10^3 organisms\/g;10^3 organisms\/mL;10^3\/L;10^3\/hpf;10^3\/mm3;10^3\/mm4;10^3\/uL;10^4\/L;10^4\/hpf;10^5\/L;10^5\/hpf;10^6 CFU;10^6 CFU\/g;10^6 CFU\/mL;10^6 DNA copies\/mL;10^6 IU;10^6 IU\/mL;10^6 RNA copies\/mL;10^6 copies\/mL;10^6 organisms;10^6 organisms\/g;10^6 organisms\/mL;10^6 organisms\/mg;10^6\/L;10^6\/g;10^6\/hpf;10^6\/mm3;10^6\/uL;10^7\/L;10^8\/L;10^9 CFU;10^9 CFU\/g;10^9 CFU\/mL;10^9 organisms;10^9 organisms\/g;10^9 organisms\/mL;10^9 organisms\/mg;10^9\/L;AFU;AI;AMPULE;APL U\/mL;APPLICATION;ASC;AU;AU\/mL;AU\/min;AgU\/mL;Antibody Unit;BAG;BAR;BAU;BAU\/mL;BE\/mL;BEATS\/MIN;BISCUIT;BLOCKS;BOLUS;BOTTLE;BOX;BREATHS\/MIN;BU;BU\/mL;Bq;Bq\/L;Bq\/g;Bq\/kg;Bq\/mL;Bq\/mg;Bq\/uL;Bq\/ug;C;CAE;CAN;CAPFUL;CAPLET;CAPSULE;CARTRIDGE;CASE;CCID 50\/dose;CCID 50\/mL;CFU\/g;CFU\/mL;CIGAR;CIGARETTE;COAT;COI;CONTAINER;CUP;CYLINDER;Ci;Ci\/L;Ci\/g;Ci\/kg;Ci\/mL;Ci\/mg;Ci\/uL;Ci\/ug;Coulomb;Ct;DAYS;DAgU;DAgU\/mL;DIOPTER;DISK;DNA copies\/mL;DPM;DRUM;EID 50\/dose;EID 50\/mL;ELISA unit;ELISA unit\/dose;ELISA unit\/mL;EU;Enzyme U;F;FEU;FINGERTIP UNIT;Farad;Frames\/s;GBq;GBq\/g;GBq\/mg;GBq\/ug;GI\/L;GLASS;GPL U\/mL;Gauss;Gy;HAU\/100 uL;HEP;HOMEOPATHIC DILUTION;HOURS;HPF;Hb Fract.;Hemolytic Unit;Henry;Hounsfield Unit;Hz;IMPLANT;INDEX VALUE;INHALATION;IU;IU\/L;IU\/dL;IU\/g;IU\/kg;IU\/kg\/h;IU\/mL;IU\/mg;IU^4;IV;Immune Status Ratio (ISR);JAR;Joule;KALLIKREIN INHIBITOR UNIT;KIT;L;L\/L;L\/h;L\/h\/m2;L\/kg;L\/min;L\/min\/m2;L\/s;LB;LOZENGE;LPF;Log10 ELISA unit;Log10 ELISA unit\/dose;Log10 GEq\/mL;Log10 PFU\/mL;MBq;MBq\/uL;MESF;MFI;MHz;MONTHS;MPL U\/mL;Mile;NEBULE;NEEDLE GAUGE;NIU;Newton;PACK;PACKAGE;PACKET;PATCH;PELLET;PFU;PFU\/dose;PFU\/mL;PIPE;PIXEL;PIXELS\/cm;PIXELS\/in;PNU\/mL;POINT;POUCH;PRESSOR UNITS;PUFF;Pa;Pack Year;Perfusion unit;Perfusion unit*sec;QUANTITY SUFFICIENT;RATIO;RING;RNA copies\/mL;Rad;Roentgen;SACHET;SBE\/mL;SCO;SCOOPFUL;SFC;SFC\/10^6 PBMC;SPRAY;SQU\/mL;STANDARD DRINK\/day;STEPS;STRIP;SUPPOSITORY;SYRINGE;Shock Wave;Siemens;Signals\/cells;Sv;TABLET;TAMPON;TCID 50\/dose;TI\/L;TRACE;TROCHE;TUBE;Tbsp;Tesla;Torr;U;U.CARR;U\/L;U\/animal;U\/cL;U\/dL;U\/g;U\/g\/day;U\/g\/h;U\/g\/min;U\/kg;U\/kg\/day;U\/kg\/h;U\/kg\/min;U\/m2;U\/m2\/day;U\/m2\/h;U\/m2\/min;U\/mL;U\/mg;U\/mmol;V;V\/sec;VIAL;VIRTUAL PIXEL;WAFER;WEEKS;Watt;Weber;YEARS;ag;amol;amp;amu;anti-Xa IU;anti-Xa IU\/mL;atm;bel;cGy;cL;cal;cc;cd;cells\/mm3;cells\/uL;cg;cm;cm H2O;cm\/min;cm\/s;cm2;cmol;cmol\/L;copies\/mL;copies\/uL;cpm;cs;cy\/cm;cycle\/min;cycle\/sec;dB;dL;damol\/L;deg;dmol;dpm\/0.5 mL;dpm\/100mg;dpm\/mL;dpm\/mg;dram;dyn;eq;fL;fg;fmol;fmol\/L;fmol\/g;foz_br;foz_us;fraction of 1;ft;ft2;ft3;g;g\/24h;g\/L;g\/animal;g\/animal\/day;g\/animal\/wk;g\/cage;g\/cage\/day;g\/cage\/wk;g\/cm2;g\/dL;g\/day;g\/g;g\/g Creatinine;g\/g\/day;g\/kg;g\/kg\/day;g\/m2;g\/m2\/day;g\/mol;grain;gtt;hPa;in;in2;kAU\/L;kBq;kBq\/uL;kDa;kHz;kIU;kN\/cm2;kPa;kPa\/L\/sec;kU\/L;kUSP;kat;kcal;kg;kg\/L;kg\/cm;kg\/cm2;kg\/m2;km;km\/h;ks;lbf;lm;log EID 50\/dose;log10 CCID 50\/dose;log10 CFU\/g;log10 CFU\/mL;log10 IU\/mL;log10 TCID 50\/dose;log10 copies\/mL;lx;m;m\/sec;m\/sec2;m2;m3;mCi;mCi\/L;mCi\/kg;mEq;mEq\/L;mEq\/dL;mEq\/day;mEq\/g;mEq\/kg;mEq\/mL;mEq\/mmol;mEq\/uL;mEq\/ug;mIU\/L;mIU\/mL;mJoule\/cm2;mL;mL\/animal;mL\/animal\/day;mL\/animal\/wk;mL\/breath;mL\/cage;mL\/cage\/day;mL\/cage\/wk;mL\/cm;mL\/cm H2O;mL\/dL;mL\/day;mL\/g;mL\/g\/day;mL\/g\/h;mL\/g\/min;mL\/h;mL\/h\/uL of lysat;mL\/kg;mL\/kg\/day;mL\/kg\/h;mL\/kg\/min;mL\/m2;mL\/m2\/day;mL\/m2\/h;mL\/m2\/min;mL\/min;mL\/min\/1.73m2;mL\/min\/SSA;mL\/min\/mmHg;mL\/mmHg;mL\/mmHg\/min\/L;mL\/s;mL\/sec\/1.73m2;mOsm;mOsm\/kg;mPa;mU\/L;mU\/mL;mV;mV*min;mV2\/Hz;mcg\/dL;mg;mg%;mg\/24h;mg\/L;mg\/L FEU;mg\/animal;mg\/dL;mg\/day;mg\/g;mg\/g Creatinine;mg\/g\/day;mg\/g\/h;mg\/g\/min;mg\/h;mg\/kg;mg\/kg\/day;mg\/kg\/h;mg\/kg\/min;mg\/m2;mg\/m2\/day;mg\/m2\/h;mg\/m2\/min;mg\/mL\/min;mg\/min;mg\/mmol Creatinine;mg\/mol;min;mkat;mm;mm\/2h;mm\/h;mm\/min;mm\/sec;mm2;mm3;mmHg;mmHg\/L\/min;mmHg\/sec;mmol;mmol FA\/mL\/h;mmol\/L;mmol\/day;mmol\/g;mmol\/kg;mmol\/min\/kPa;mmol\/min\/kPa\/L;mmol\/mol;mmol^2\/L^2;mol;mol\/L;mol\/g;mol\/mL;mol\/mg;mol\/mol;mph;msec;nCi;nL;nU\/cL;nU\/mL;ng;ng\/L;ng\/dL;ng\/mL;nkat;nkat\/L;nm;nmol;nmol BCE\/L;nmol BCE\/mmol;nmol\/L;nmol\/dL;nmol\/hr\/mg protein;nmol\/mL\/min;nmol\/min\/mg protein;nsec;ohm;osm;oz;pL;per min;per sec;pg;pg\/L;pg\/dL;pg\/mL;pkat;pm;pmol;pmol\/L;pmol\/min\/uL of lysat;pmol\/punch\/hr;pools\/day;pools\/h;ppb;ppm;ppth;pptr;psec;psi;pt_br;pt_us;rpm;sABC;sMEC;scm;sec;titer;tsp;tuberculin unit;tuberculin unit\/mL;uCi;uCi\/L;uCi\/kg;uEq;uEq\/L;uIU\/mL;uL;uL\/mL;uOsM;uU\/mL;uV;uV*sec;ug;ug\/L;ug\/animal;ug\/dL;ug\/day;ug\/g\/day;ug\/g\/h;ug\/g\/min;ug\/h;ug\/kg;ug\/kg\/day;ug\/kg\/h;ug\/kg\/min;ug\/m2;ug\/m2\/day;ug\/m2\/h;ug\/m2\/min;ug\/mL;ug\/mL\/h;ug\/min;ugEq;ukat;ukat\/L;um;um2;umol;umol\/L;umol\/L\/min;umol\/L\/sec;umol\/day;umol\/mg\/min;umol\/min;usec;v\/v;yd;NONE;OTHER","class":"question","x":70.866,"y":121.671,"height":15.744,"width":66.936},{"pagenumber":11.0,"form":"Influenza Like Illness","OID":"CE_VAC_ILI","Domain":null,"order":41.0,"PreText":"Laboratory confirmed?","Question":null,"CDASH":"CELBCFYN","CDASHTYPE":"SANOFI","SDTM":"","SDTMTYPE":"","codename":"NY_YN","codelist":"Y;N","class":"question","x":70.866,"y":102.671,"height":15.744,"width":110.856},{"pagenumber":12.0,"form":"Subject Medical History","OID":"MH_NPR_01","Domain":null,"order":2.0,"PreText":"List significant past or current diagnoses, for the following Body Systems: Blood and Lymphatic \/ Cardiovascular \/ Gastrointestinal \/ Hepatobiliary \/ Neurological \/ Psychiatric \/ Renal and urinary \/ Respiratory \/ Endocrine and metabolic \/ Neoplasms benign, malignant and unspecified \/ Musculoskeletal and connective tissue.","Question":null,"CDASH":"PROMPT_MHYN","CDASHTYPE":"SANOFI","SDTM":"","SDTMTYPE":"","codename":null,"codelist":null,"class":"question","x":70.866,"y":666.659,"height":15.948,"width":468.612},{"pagenumber":12.0,"form":"Subject Medical History","OID":"MH_NPR_01","Domain":null,"order":6.0,"PreText":"Has the subject experienced any significant past and\/or current diseases?","Question":"Were any medical conditions or events reported?; Has the subject had any medical conditions or events?","CDASH":"MHYN","CDASHTYPE":"IG","SDTM":"","SDTMTYPE":"","codename":null,"codelist":null,"class":"question","x":70.866,"y":607.671,"height":15.744,"width":300.936},{"pagenumber":12.0,"form":"Subject Medical History","OID":"MH_NPR_01","Domain":null,"order":8.0,"PreText":"If yes, complete the following questions.","Question":null,"CDASH":"PROMPT_MHSPID","CDASHTYPE":"SANOFI","SDTM":"","SDTMTYPE":"","codename":null,"codelist":null,"class":"question","x":70.866,"y":572.659,"height":15.948,"width":192.108},{"pagenumber":12.0,"form":"Subject Medical History","OID":"MH_NPR_01","Domain":"MH","order":9.0,"PreText":"Unique ID","Question":"What is the medical condition or event identifier?","CDASH":"MHSPID","CDASHTYPE":"IG","SDTM":"MHSPID","SDTMTYPE":"IG","codename":null,"codelist":null,"class":"question","x":70.866,"y":555.671,"height":15.744,"width":50.964},{"pagenumber":12.0,"form":"Subject Medical History","OID":"MH_NPR_01","Domain":"MH","order":10.0,"PreText":"Medical History Term","Question":"What is the medical condition or event term?","CDASH":"MHTERM","CDASHTYPE":"IG","SDTM":"MHTERM","SDTMTYPE":"IG","codename":null,"codelist":null,"class":"question","x":70.866,"y":538.671,"height":15.744,"width":107.196},{"pagenumber":12.0,"form":"Subject Medical History","OID":"MH_NPR_01","Domain":"MH","order":11.0,"PreText":"Ongoing at Inclusion","Question":"Is the medical condition or event ongoing?","CDASH":"MHONGO","CDASHTYPE":"IG","SDTM":"MHENRF; MHENRTPT","SDTMTYPE":"IG","codename":null,"codelist":null,"class":"question","x":70.866,"y":521.671,"height":15.744,"width":101.256},{"pagenumber":13.0,"form":"Influenza Vaccination History","OID":"CM_VAC_ALL","Domain":"CM","order":0.0,"PreText":"\\Trade Name\/Manufacturer\/Valence\\ (If Unknown, enter 'UNK')","Question":"What was the (concomitant) [medication\/treatment\/therapy] (name\/term)?","CDASH":"CMTRT","CDASHTYPE":"IG","SDTM":"CMTRT","SDTMTYPE":"IG","codename":null,"codelist":null,"class":"unassigned","x":-100.0,"y":760.0,"height":15.0,"width":100.0},{"pagenumber":13.0,"form":"Influenza Vaccination History","OID":"CM_VAC_ALL","Domain":"CM","order":0.0,"PreText":"Dosage","Question":"What was the individual dose of the (concomitant) [mediation\/treatment\/therapy]?","CDASH":"CMDSTXT","CDASHTYPE":"IG","SDTM":"CMDOSTXT; CMDOSE","SDTMTYPE":"IG","codename":null,"codelist":null,"class":"unassigned","x":-100.0,"y":760.0,"height":15.0,"width":100.0},{"pagenumber":13.0,"form":"Influenza Vaccination History","OID":"CM_VAC_ALL","Domain":"CM","order":0.0,"PreText":"Route of Administration","Question":"What was the route of administration of the (concomitant) [medication\/treatment\/therapy]?","CDASH":"CMROUTE","CDASHTYPE":"IG","SDTM":"CMROUTE","SDTMTYPE":"IG","codename":"ROUTE_03","codelist":"INTRADERMAL;INTRAMUSCULAR OR SUBCUTANEOUS;NASAL;UNKNOWN","class":"unassigned","x":-100.0,"y":760.0,"height":15.0,"width":100.0},{"pagenumber":13.0,"form":"Influenza Vaccination History","OID":"CM_VAC_ALL","Domain":"SUPPCM","order":0.0,"PreText":"Did the subject experience any reaction following administration? (If Yes, specify the reaction)","Question":null,"CDASH":"CMREACYN","CDASHTYPE":"SANOFI","SDTM":"CMREACYN","SDTMTYPE":"SANOFI","codename":"NY_YNU","codelist":"Y;N;U","class":"unassigned","x":-100.0,"y":760.0,"height":15.0,"width":100.0},{"pagenumber":13.0,"form":"Influenza Vaccination History","OID":"CM_VAC_ALL","Domain":"SUPPCM","order":0.0,"PreText":"Specify Reaction","Question":null,"CDASH":"CMREACSP","CDASHTYPE":"SANOFI","SDTM":"CMREACSP","SDTMTYPE":"SANOFI","codename":null,"codelist":null,"class":"unassigned","x":-100.0,"y":760.0,"height":15.0,"width":100.0},{"pagenumber":13.0,"form":"Influenza Vaccination History","OID":"CM_VAC_ALL","Domain":"CM","order":2.0,"PreText":"Category for Medication","Question":"What is the category for the (concomitant) [medication\/treatment\/therapy]?","CDASH":"CMCAT","CDASHTYPE":"IG","SDTM":"CMCAT","SDTMTYPE":"IG","codename":"CMCAT","codelist":"ANTI-CANCER THERAPY;ANTI-HYPERGLYCEMIC THERAPY;ANTIBIOTIC;ASTHMA CONTROLLER;ASTHMA RELIEVER;BASAL INSULIN;HISTORY OF ANTI-HYPERGLYCEMIC THERAPY;HISTORY OF LIPID MODIFYING THERAPY;HISTORY OF VACCINATION;HYPOGLYCEMIC TREATMENT;LIPID LOWERING THERAPY;LIPID MODIFYING THERAPY EXCLUDING STATIN;MEDICATION;NON-MEDICATION THERAPY;RESCUE THERAPY;SAE COMPLEMENTARY INFORMATION;STATIN THERAPY;SYSTEMIC CORTICOID THERAPY;OTHER;MEDICATIONS IMPACTING OR THAT MAY HAVE AN IMPACT ON THE EVALUATION OF THE SAFETY;MEDICATIONS IMPACTING OR THAT MAY HAVE AN IMPACT ON THE IMMUNE RESPONSE;MEDICATIONS IMPACTING OR THAT MAY HAVE AN IMPACT ON BOTH THE SAFETY AND THE IMMUNE RESPONSE","class":"question","x":70.866,"y":666.671,"height":15.744,"width":118.524},{"pagenumber":13.0,"form":"Influenza Vaccination History","OID":"CM_VAC_ALL","Domain":null,"order":29.0,"PreText":"Record information related only to \\Influenza \/Japanese Encephalitis\/Yellow Fever\/Diphtheria\/Tetanus\/Pneumococcal\/Meningococcal\/Licensed Dengue \\vaccinations. Other vaccinations should be recorded in the Reportable Medications page.\rUse exact spelling.","Question":null,"CDASH":"PROMPT_CMFLH_01","CDASHTYPE":"SANOFI","SDTM":"","SDTMTYPE":"","codename":null,"codelist":null,"class":"question","x":70.866,"y":263.659,"height":15.948,"width":367.92},{"pagenumber":13.0,"form":"Influenza Vaccination History","OID":"CM_VAC_ALL","Domain":"CM","order":33.0,"PreText":"Vaccination History Type","Question":"What is the subcategory for the (concomitant) [medication\/treatment\/therapy]?","CDASH":"CMSCAT","CDASHTYPE":"IG","SDTM":"CMSCAT","SDTMTYPE":"IG","codename":"CMSCAT","codelist":"ANTIBIOTIC;ANTIBIOTICS;DIPHTHERIA VACCINE;HIGHLIGHTED DOSE;JAPANESE ENCEPHALITIS VACCINE;LICENSED DENGUE VACCINE;MENINGOCOCCAL VACCINE;NON-STUDY VACCINES;PNEUMOCOCCAL VACCINE;POST STUDY TREATMENT;PRIOR STUDY TREATMENT;SEASONAL INFLUENZA VACCINE;TETANUS VACCINE;YELLOW FEVER VACCINE","class":"question","x":70.866,"y":201.671,"height":15.744,"width":124.512},{"pagenumber":14.0,"form":"Influenza Vaccination History","OID":"CM_VAC_ALL","Domain":"CM","order":2.0,"PreText":"Pre-Specified?","Question":null,"CDASH":"CMPRESP","CDASHTYPE":"SANOFI","SDTM":"CMPRESP","SDTMTYPE":"SANOFI","codename":"NY_YN","codelist":"Y;N","class":"question","x":70.866,"y":583.671,"height":15.744,"width":70.56},{"pagenumber":14.0,"form":"Influenza Vaccination History","OID":"CM_VAC_ALL","Domain":null,"order":3.0,"PreText":"Year of Vaccination","Question":null,"CDASH":"CMTERM","CDASHTYPE":"SANOFI","SDTM":"","SDTMTYPE":"","codename":null,"codelist":null,"class":"question","x":70.866,"y":548.671,"height":15.744,"width":97.188},{"pagenumber":14.0,"form":"Influenza Vaccination History","OID":"CM_VAC_ALL","Domain":"CM","order":4.0,"PreText":"Vaccination received? (If Yes, provide Details)","Question":"Did the subject take [pre-specified (concomitant) medication\/treatment\/therapy\/dose]?; Has the subject taken [pre-specified (concomitant) medication\/treatment\/therapy\/dose]?","CDASH":"CMOCCUR","CDASHTYPE":"IG","SDTM":"CMOCCUR","SDTMTYPE":"IG","codename":"NY_YNU","codelist":"Y;N;U","class":"question","x":70.866,"y":503.671,"height":15.948,"width":225.012},{"pagenumber":14.0,"form":"Influenza Vaccination History","OID":"CM_VAC_ALL","Domain":"CM","order":5.0,"PreText":"Date of Last Administration","Question":"What was the (concomitant) [medication\/treatment\/therapy\/dose] start date?","CDASH":"CMSTDAT","CDASHTYPE":"IG","SDTM":"CMSTDTC","SDTMTYPE":"IG","codename":null,"codelist":null,"class":"question","x":70.866,"y":452.671,"height":15.744,"width":134.832},{"pagenumber":14.0,"form":"Influenza Vaccination History","OID":"CM_VAC_ALL","Domain":"CM","order":6.0,"PreText":"Vaccination History Type","Question":"What is the subcategory for the (concomitant) [medication\/treatment\/therapy]?","CDASH":"CMSCAT","CDASHTYPE":"IG","SDTM":"CMSCAT","SDTMTYPE":"IG","codename":"CMSCAT","codelist":"ANTIBIOTIC;ANTIBIOTICS;DIPHTHERIA VACCINE;HIGHLIGHTED DOSE;JAPANESE ENCEPHALITIS VACCINE;LICENSED DENGUE VACCINE;MENINGOCOCCAL VACCINE;NON-STUDY VACCINES;PNEUMOCOCCAL VACCINE;POST STUDY TREATMENT;PRIOR STUDY TREATMENT;SEASONAL INFLUENZA VACCINE;TETANUS VACCINE;YELLOW FEVER VACCINE","class":"question","x":70.866,"y":432.671,"height":15.744,"width":124.512},{"pagenumber":14.0,"form":"Influenza Vaccination History","OID":"CM_VAC_ALL","Domain":"CM","order":7.0,"PreText":"Pre-Specified?","Question":null,"CDASH":"CMPRESP","CDASHTYPE":"SANOFI","SDTM":"CMPRESP","SDTMTYPE":"SANOFI","codename":"NY_YN","codelist":"Y;N","class":"question","x":70.866,"y":205.671,"height":15.744,"width":70.56},{"pagenumber":14.0,"form":"Influenza Vaccination History","OID":"CM_VAC_ALL","Domain":null,"order":8.0,"PreText":"Year of Vaccination","Question":null,"CDASH":"CMTERM","CDASHTYPE":"SANOFI","SDTM":"","SDTMTYPE":"","codename":null,"codelist":null,"class":"question","x":70.866,"y":170.671,"height":15.744,"width":97.188},{"pagenumber":14.0,"form":"Influenza Vaccination History","OID":"CM_VAC_ALL","Domain":"CM","order":9.0,"PreText":"Vaccination received? (If Yes, provide Details)","Question":"Did the subject take [pre-specified (concomitant) medication\/treatment\/therapy\/dose]?; Has the subject taken [pre-specified (concomitant) medication\/treatment\/therapy\/dose]?","CDASH":"CMOCCUR","CDASHTYPE":"IG","SDTM":"CMOCCUR","SDTMTYPE":"IG","codename":"NY_YNU","codelist":"Y;N;U","class":"question","x":70.866,"y":125.671,"height":15.948,"width":225.012},{"pagenumber":14.0,"form":"Influenza Vaccination History","OID":"CM_VAC_ALL","Domain":"CM","order":10.0,"PreText":"Date of Last Administration","Question":"What was the (concomitant) [medication\/treatment\/therapy\/dose] start date?","CDASH":"CMSTDAT","CDASHTYPE":"IG","SDTM":"CMSTDTC","SDTMTYPE":"IG","codename":null,"codelist":null,"class":"question","x":70.866,"y":74.671,"height":15.744,"width":134.832},{"pagenumber":15.0,"form":"Influenza Vaccination History","OID":"CM_VAC_ALL","Domain":"CM","order":2.0,"PreText":"Vaccination History Type","Question":"What is the subcategory for the (concomitant) [medication\/treatment\/therapy]?","CDASH":"CMSCAT","CDASHTYPE":"IG","SDTM":"CMSCAT","SDTMTYPE":"IG","codename":"CMSCAT","codelist":"ANTIBIOTIC;ANTIBIOTICS;DIPHTHERIA VACCINE;HIGHLIGHTED DOSE;JAPANESE ENCEPHALITIS VACCINE;LICENSED DENGUE VACCINE;MENINGOCOCCAL VACCINE;NON-STUDY VACCINES;PNEUMOCOCCAL VACCINE;POST STUDY TREATMENT;PRIOR STUDY TREATMENT;SEASONAL INFLUENZA VACCINE;TETANUS VACCINE;YELLOW FEVER VACCINE","class":"question","x":70.866,"y":666.671,"height":15.744,"width":124.512},{"pagenumber":15.0,"form":"Influenza Vaccination History","OID":"CM_VAC_ALL","Domain":"CM","order":3.0,"PreText":"Pre-Specified?","Question":null,"CDASH":"CMPRESP","CDASHTYPE":"SANOFI","SDTM":"CMPRESP","SDTMTYPE":"SANOFI","codename":"NY_YN","codelist":"Y;N","class":"question","x":70.866,"y":439.671,"height":15.744,"width":70.56},{"pagenumber":15.0,"form":"Influenza Vaccination History","OID":"CM_VAC_ALL","Domain":null,"order":4.0,"PreText":"Year of Vaccination","Question":null,"CDASH":"CMTERM","CDASHTYPE":"SANOFI","SDTM":"","SDTMTYPE":"","codename":null,"codelist":null,"class":"question","x":70.866,"y":404.671,"height":15.744,"width":97.188},{"pagenumber":15.0,"form":"Influenza Vaccination History","OID":"CM_VAC_ALL","Domain":"CM","order":5.0,"PreText":"Vaccination received? (If Yes, provide Details)","Question":"Did the subject take [pre-specified (concomitant) medication\/treatment\/therapy\/dose]?; Has the subject taken [pre-specified (concomitant) medication\/treatment\/therapy\/dose]?","CDASH":"CMOCCUR","CDASHTYPE":"IG","SDTM":"CMOCCUR","SDTMTYPE":"IG","codename":"NY_YNU","codelist":"Y;N;U","class":"question","x":70.866,"y":359.671,"height":15.948,"width":225.012},{"pagenumber":15.0,"form":"Influenza Vaccination History","OID":"CM_VAC_ALL","Domain":"CM","order":6.0,"PreText":"Date of Last Administration","Question":"What was the (concomitant) [medication\/treatment\/therapy\/dose] start date?","CDASH":"CMSTDAT","CDASHTYPE":"IG","SDTM":"CMSTDTC","SDTMTYPE":"IG","codename":null,"codelist":null,"class":"question","x":70.866,"y":308.671,"height":15.744,"width":134.832},{"pagenumber":15.0,"form":"Influenza Vaccination History","OID":"CM_VAC_ALL","Domain":"CM","order":7.0,"PreText":"Vaccination History Type","Question":"What is the subcategory for the (concomitant) [medication\/treatment\/therapy]?","CDASH":"CMSCAT","CDASHTYPE":"IG","SDTM":"CMSCAT","SDTMTYPE":"IG","codename":"CMSCAT","codelist":"ANTIBIOTIC;ANTIBIOTICS;DIPHTHERIA VACCINE;HIGHLIGHTED DOSE;JAPANESE ENCEPHALITIS VACCINE;LICENSED DENGUE VACCINE;MENINGOCOCCAL VACCINE;NON-STUDY VACCINES;PNEUMOCOCCAL VACCINE;POST STUDY TREATMENT;PRIOR STUDY TREATMENT;SEASONAL INFLUENZA VACCINE;TETANUS VACCINE;YELLOW FEVER VACCINE","class":"question","x":70.866,"y":288.671,"height":15.744,"width":124.512},{"pagenumber":16.0,"form":"Influenza Vaccination History","OID":"CM_VAC_ALL","Domain":"CM","order":2.0,"PreText":"Pre-Specified?","Question":null,"CDASH":"CMPRESP","CDASHTYPE":"SANOFI","SDTM":"CMPRESP","SDTMTYPE":"SANOFI","codename":"NY_YN","codelist":"Y;N","class":"question","x":70.866,"y":666.671,"height":15.744,"width":70.56},{"pagenumber":16.0,"form":"Influenza Vaccination History","OID":"CM_VAC_ALL","Domain":null,"order":3.0,"PreText":"Year of Vaccination","Question":null,"CDASH":"CMTERM","CDASHTYPE":"SANOFI","SDTM":"","SDTMTYPE":"","codename":null,"codelist":null,"class":"question","x":70.866,"y":631.671,"height":15.744,"width":97.188},{"pagenumber":16.0,"form":"Influenza Vaccination History","OID":"CM_VAC_ALL","Domain":"CM","order":4.0,"PreText":"Vaccination received? (If Yes, provide Details)","Question":"Did the subject take [pre-specified (concomitant) medication\/treatment\/therapy\/dose]?; Has the subject taken [pre-specified (concomitant) medication\/treatment\/therapy\/dose]?","CDASH":"CMOCCUR","CDASHTYPE":"IG","SDTM":"CMOCCUR","SDTMTYPE":"IG","codename":"NY_YNU","codelist":"Y;N;U","class":"question","x":70.866,"y":586.671,"height":15.948,"width":225.012},{"pagenumber":16.0,"form":"Influenza Vaccination History","OID":"CM_VAC_ALL","Domain":"CM","order":5.0,"PreText":"Date of Last Administration","Question":"What was the (concomitant) [medication\/treatment\/therapy\/dose] start date?","CDASH":"CMSTDAT","CDASHTYPE":"IG","SDTM":"CMSTDTC","SDTMTYPE":"IG","codename":null,"codelist":null,"class":"question","x":70.866,"y":535.671,"height":15.744,"width":134.832},{"pagenumber":17.0,"form":"History of Flu Diagnosis","OID":"MH_VAC_FLU","Domain":"MH","order":2.0,"PreText":"MH Category","Question":"What was the category of the medical history?","CDASH":"MHCAT","CDASHTYPE":"IG","SDTM":"MHCAT","SDTMTYPE":"IG","codename":"MHCAT","codelist":"ALLERGY;ASTHMA;BLOOD DISORDER;CARDIOVASCULAR DISORDER;DIABETES;DISEASE HISTORY;EPISTAXIS;HEPATOBILIARY DISORDER;HYPERLIPOPROTEINEMIA;JUVENILE IDIOPATHIC ARTHRITIS;MEDICAL OR SURGICAL;MULTIPLE SCLEROSIS;NEUROLOGIC DISORDER;POLYPOSIS;POMPE DISEASE;RENAL DISORDER;RESPIRATORY DISORDER;RHEUMATOLOGIC DISORDER;RHINOSINUSITIS;SAE COMPLEMENTARY INFORMATION;SCLERODERMA;OTHER","class":"question","x":70.866,"y":666.671,"height":15.744,"width":66.276},{"pagenumber":17.0,"form":"History of Flu Diagnosis","OID":"MH_VAC_FLU","Domain":null,"order":26.0,"PreText":"Record information related only to Influenza disease history.","Question":null,"CDASH":"PROMPT_MHFLH_01","CDASHTYPE":"SANOFI","SDTM":"","SDTMTYPE":"","codename":null,"codelist":null,"class":"question","x":70.866,"y":299.659,"height":15.948,"width":292.38},{"pagenumber":17.0,"form":"History of Flu Diagnosis","OID":"MH_VAC_FLU","Domain":"MH","order":27.0,"PreText":"Pre-Specified?","Question":null,"CDASH":"MHPRESP","CDASHTYPE":"IG","SDTM":"MHPRESP","SDTMTYPE":"IG","codename":"NY_YN","codelist":"Y;N","class":"question","x":70.866,"y":279.671,"height":15.744,"width":70.56},{"pagenumber":17.0,"form":"History of Flu Diagnosis","OID":"MH_VAC_FLU","Domain":"MH","order":28.0,"PreText":"Type of Infection","Question":"What is the medical condition or event term?","CDASH":"MHTERM","CDASHTYPE":"IG","SDTM":"MHTERM","SDTMTYPE":"IG","codename":null,"codelist":null,"class":"question","x":70.866,"y":244.671,"height":15.744,"width":83.904},{"pagenumber":17.0,"form":"History of Flu Diagnosis","OID":"MH_VAC_FLU","Domain":"MH","order":29.0,"PreText":"Evaluation Interval","Question":null,"CDASH":"MHEVINTX","CDASHTYPE":"SANOFI","SDTM":"MHEVINTX","SDTMTYPE":"SANOFI","codename":null,"codelist":null,"class":"question","x":70.866,"y":213.671,"height":15.744,"width":92.196},{"pagenumber":17.0,"form":"History of Flu Diagnosis","OID":"MH_VAC_FLU","Domain":"MH","order":30.0,"PreText":"Was infection experienced during the evaluation interval? (If Yes, Provide Details)","Question":"Did the subject have [pre-specified medical condition\/event\/group of medical conditions]; Is the [pre-specified medical occurring ]?","CDASH":"MHOCCUR","CDASHTYPE":"IG","SDTM":"MHOCCUR","SDTMTYPE":"IG","codename":null,"codelist":null,"class":"question","x":70.866,"y":196.671,"height":15.948,"width":314.568},{"pagenumber":17.0,"form":"History of Flu Diagnosis","OID":"MH_VAC_FLU","Domain":"MH","order":40.0,"PreText":"Date","Question":"What was the medical condition or event start date?","CDASH":"MHSTDAT","CDASHTYPE":"IG","SDTM":"MHSTDTC","SDTMTYPE":"IG","codename":null,"codelist":null,"class":"question","x":70.866,"y":145.671,"height":15.744,"width":22.62},{"pagenumber":17.0,"form":"History of Flu Diagnosis","OID":"MH_VAC_FLU","Domain":"MH","order":41.0,"PreText":"Specify Symptoms","Question":"What is the medical condition or event term?","CDASH":"MHTERM1","CDASHTYPE":"IG","SDTM":"MHTERM","SDTMTYPE":"IG","codename":null,"codelist":null,"class":"question","x":70.866,"y":128.671,"height":15.744,"width":90.936},{"pagenumber":17.0,"form":"History of Flu Diagnosis","OID":"MH_VAC_FLU","Domain":"MH","order":42.0,"PreText":"Pre-Specified?","Question":null,"CDASH":"MHPRESP","CDASHTYPE":"IG","SDTM":"MHPRESP","SDTMTYPE":"IG","codename":"NY_YN","codelist":"Y;N","class":"question","x":70.866,"y":108.671,"height":15.744,"width":70.56},{"pagenumber":17.0,"form":"History of Flu Diagnosis","OID":"MH_VAC_FLU","Domain":"MH","order":43.0,"PreText":"Type of Infection","Question":"What is the medical condition or event term?","CDASH":"MHTERM","CDASHTYPE":"IG","SDTM":"MHTERM","SDTMTYPE":"IG","codename":null,"codelist":null,"class":"question","x":70.866,"y":73.671,"height":15.744,"width":83.904},{"pagenumber":18.0,"form":"History of Flu Diagnosis","OID":"MH_VAC_FLU","Domain":"MH","order":2.0,"PreText":"Evaluation Interval","Question":null,"CDASH":"MHEVINTX","CDASHTYPE":"SANOFI","SDTM":"MHEVINTX","SDTMTYPE":"SANOFI","codename":null,"codelist":null,"class":"question","x":70.866,"y":635.671,"height":15.744,"width":92.196},{"pagenumber":18.0,"form":"History of Flu Diagnosis","OID":"MH_VAC_FLU","Domain":"MH","order":5.0,"PreText":"Date","Question":"What was the medical condition or event start date?","CDASH":"MHSTDAT","CDASHTYPE":"IG","SDTM":"MHSTDTC","SDTMTYPE":"IG","codename":null,"codelist":null,"class":"question","x":70.866,"y":553.671,"height":15.744,"width":22.62},{"pagenumber":18.0,"form":"History of Flu Diagnosis","OID":"MH_VAC_FLU","Domain":"MH","order":6.0,"PreText":"Specify Symptoms","Question":"What is the medical condition or event term?","CDASH":"MHTERM1","CDASHTYPE":"IG","SDTM":"MHTERM","SDTMTYPE":"IG","codename":null,"codelist":null,"class":"question","x":70.866,"y":536.671,"height":15.744,"width":90.936},{"pagenumber":18.0,"form":"History of Flu Diagnosis","OID":"MH_VAC_FLU","Domain":"MH","order":7.0,"PreText":"Pre-Specified?","Question":null,"CDASH":"MHPRESP","CDASHTYPE":"IG","SDTM":"MHPRESP","SDTMTYPE":"IG","codename":"NY_YN","codelist":"Y;N","class":"question","x":70.866,"y":516.671,"height":15.744,"width":70.56},{"pagenumber":18.0,"form":"History of Flu Diagnosis","OID":"MH_VAC_FLU","Domain":"MH","order":8.0,"PreText":"Type of Infection","Question":"What is the medical condition or event term?","CDASH":"MHTERM","CDASHTYPE":"IG","SDTM":"MHTERM","SDTMTYPE":"IG","codename":null,"codelist":null,"class":"question","x":70.866,"y":481.671,"height":15.744,"width":83.904},{"pagenumber":18.0,"form":"History of Flu Diagnosis","OID":"MH_VAC_FLU","Domain":"MH","order":9.0,"PreText":"Evaluation Interval","Question":null,"CDASH":"MHEVINTX","CDASHTYPE":"SANOFI","SDTM":"MHEVINTX","SDTMTYPE":"SANOFI","codename":null,"codelist":null,"class":"question","x":70.866,"y":450.671,"height":15.744,"width":92.196},{"pagenumber":18.0,"form":"History of Flu Diagnosis","OID":"MH_VAC_FLU","Domain":"MH","order":12.0,"PreText":"Date","Question":"What was the medical condition or event start date?","CDASH":"MHSTDAT","CDASHTYPE":"IG","SDTM":"MHSTDTC","SDTMTYPE":"IG","codename":null,"codelist":null,"class":"question","x":70.866,"y":368.671,"height":15.744,"width":22.62},{"pagenumber":18.0,"form":"History of Flu Diagnosis","OID":"MH_VAC_FLU","Domain":"MH","order":13.0,"PreText":"Specify Symptoms","Question":"What is the medical condition or event term?","CDASH":"MHTERM1","CDASHTYPE":"IG","SDTM":"MHTERM","SDTMTYPE":"IG","codename":null,"codelist":null,"class":"question","x":70.866,"y":351.671,"height":15.744,"width":90.936},{"pagenumber":18.0,"form":"History of Flu Diagnosis","OID":"MH_VAC_FLU","Domain":"MH","order":14.0,"PreText":"Pre-Specified?","Question":null,"CDASH":"MHPRESP","CDASHTYPE":"IG","SDTM":"MHPRESP","SDTMTYPE":"IG","codename":"NY_YN","codelist":"Y;N","class":"question","x":70.866,"y":331.671,"height":15.744,"width":70.56},{"pagenumber":18.0,"form":"History of Flu Diagnosis","OID":"MH_VAC_FLU","Domain":"MH","order":15.0,"PreText":"Type of Infection","Question":"What is the medical condition or event term?","CDASH":"MHTERM","CDASHTYPE":"IG","SDTM":"MHTERM","SDTMTYPE":"IG","codename":null,"codelist":null,"class":"question","x":70.866,"y":296.671,"height":15.744,"width":83.904},{"pagenumber":18.0,"form":"History of Flu Diagnosis","OID":"MH_VAC_FLU","Domain":"MH","order":16.0,"PreText":"Evaluation Interval","Question":null,"CDASH":"MHEVINTX","CDASHTYPE":"SANOFI","SDTM":"MHEVINTX","SDTMTYPE":"SANOFI","codename":null,"codelist":null,"class":"question","x":70.866,"y":265.671,"height":15.744,"width":92.196},{"pagenumber":18.0,"form":"History of Flu Diagnosis","OID":"MH_VAC_FLU","Domain":"MH","order":19.0,"PreText":"Date","Question":"What was the medical condition or event start date?","CDASH":"MHSTDAT","CDASHTYPE":"IG","SDTM":"MHSTDTC","SDTMTYPE":"IG","codename":null,"codelist":null,"class":"question","x":70.866,"y":183.671,"height":15.744,"width":22.62},{"pagenumber":18.0,"form":"History of Flu Diagnosis","OID":"MH_VAC_FLU","Domain":"MH","order":20.0,"PreText":"Specify Symptoms","Question":"What is the medical condition or event term?","CDASH":"MHTERM1","CDASHTYPE":"IG","SDTM":"MHTERM","SDTMTYPE":"IG","codename":null,"codelist":null,"class":"question","x":70.866,"y":166.671,"height":15.744,"width":90.936},{"pagenumber":19.0,"form":"Blood Sampling","OID":"CD_SER","Domain":null,"order":2.0,"PreText":"Central Data Category","Question":null,"CDASH":"CDCAT","CDASHTYPE":"SANOFI","SDTM":"","SDTMTYPE":"","codename":"CDTYP","codelist":"APPADL;BANKING;BIOMARKERS;CELL-MEDIATED IMMUNITY;CENTRAL IMAGING;CLAMP;DIAGNOSTIC;DRUG METABOLISM ENZYME;ECG TELEMETRY;ECHOCARDIOGRAM;ELECTRONIC PATIENT-REPORT OUTCOME SYSTEM;FUNCTIONAL TEST;GENETIC VARIATION;HEFH GENOTYPING;HOLTER;IW-SP;NASAL MUCOSA BRUSHING FOR RNA AND CYTOLOGY;NASAL SECRETION SAMPLING;NASAL SWABS FOR MICROBIOME;OPHTHALMOLOGICAL TEST;PQAT;PHARMACODYNAMICS;PHARMACOGENETIC ANALYSIS;PHARMACOGENETIC BANKING;PSYCHOMETRIC TEST;PULMONARY FUNCTION TESTS;SEROLOGY;TUMOR BIOPSY;VIROLOGY;VAS;WRSM","class":"question","x":70.866,"y":666.671,"height":15.744,"width":107.832},{"pagenumber":19.0,"form":"Blood Sampling","OID":"CD_SER","Domain":null,"order":3.0,"PreText":"Specimen Type","Question":null,"CDASH":"CDSPEC","CDASHTYPE":"SANOFI","SDTM":"","SDTMTYPE":"","codename":"SPECTYPE","codelist":"ADIPOSE TISSUE;AMNIOTIC FLUID;AQUEOUS HUMOR;ARTERIAL BLOOD;ARTERIAL CORD BLOOD;ATHEROSCLEROTIC PLAQUE;BILE;BLOOD;BONE;BONE MARROW;BREAST MILK;BUFFY COAT;CALCULUS;CAPILLARY BLOOD;CARDIAC MUSCLE TISSUE;CEREBROSPINAL FLUID;CERUMEN;CIRCULATING TUMOR CELL;COLOSTRUM;CORD BLOOD;CORD SERUM;DIALYSIS FLUID;DRIED BLOOD SPOT;EMESIS;ERYTHROCYTES;EXPIRED AIR;EXUDATE;FIBROBLAST;FLUID;GASTRIC CONTENTS;HAIR;HAIR FOLLICLE;INFRANATANT- PLASMA;INFRANATANT- PLEURAL FLUID;INFRANATANT- SERUM;INTERSTITIAL FLUID;ISOLATE;LAVAGE FLUID;LEUCOCYTES;LOCHIA;LUNG SURFACTANT;LYMPH;LYSATE;MECONIUM;MENSTRUAL BLOOD;MUCUS;MUSCLE TISSUE;NAIL;NASAL;NASOPHARYNGEAL;PERIPHERAL BLOOD;PERIPHERAL BLOOD MONONUCLEAR CELL;PERSPIRATION;PHARYNGEAL;PLASMA;PLATELET;PLATELET POOR PLASMA;PLATELET RICH PLASMA;PLEURAL FLUID;PROSTATIC FLUID;PUS;SALIVA;SEBUM;SEMEN;SEMINAL FLUID;SERUM;SKELETAL MUSCLE TISSUE;SMEGMA;SMOOTH MUSCLE TISSUE;SOFT TISSUE;SPUTUM;STOOL;STRIATED MUSCLE TISSUE;SUPERNATANT- CELLS;SUPERNATANT- PLASMA;SUPERNATANT- PLEURAL FLUID;SUPERNATANT- SERUM;SYNOVIAL FLUID;TISSUE;TRANSUDATE;TUMOR TISSUE;URINE;VENOUS BLOOD;VENOUS CORD BLOOD;VITREOUS HUMOR;WHOLE BLOOD;OTHER","class":"question","x":70.866,"y":81.671,"height":15.744,"width":74.904},{"pagenumber":22.0,"form":"Blood Sampling","OID":"CD_SER","Domain":null,"order":2.0,"PreText":"Sample ID","Question":null,"CDASH":"CDREFID","CDASHTYPE":"SANOFI","SDTM":"","SDTMTYPE":"","codename":null,"codelist":null,"class":"question","x":70.866,"y":503.671,"height":15.744,"width":51.612},{"pagenumber":22.0,"form":"Blood Sampling","OID":"CD_SER","Domain":null,"order":3.0,"PreText":"Was the sample collected?","Question":null,"CDASH":"CDPERF","CDASHTYPE":"SANOFI","SDTM":"","SDTMTYPE":"","codename":"NY_YN","codelist":"Y;N","class":"question","x":70.866,"y":486.671,"height":15.744,"width":127.44},{"pagenumber":22.0,"form":"Blood Sampling","OID":"CD_SER","Domain":null,"order":4.0,"PreText":"Reason sample not collected","Question":null,"CDASH":"CDPERFRS","CDASHTYPE":"SANOFI","SDTM":"","SDTMTYPE":"","codename":null,"codelist":null,"class":"question","x":70.866,"y":451.671,"height":15.744,"width":136.8},{"pagenumber":22.0,"form":"Blood Sampling","OID":"CD_SER","Domain":null,"order":5.0,"PreText":"If yes, complete the following questions.","Question":null,"CDASH":"PROMPT_CDPERF","CDASHTYPE":"SANOFI","SDTM":"","SDTMTYPE":"","codename":null,"codelist":null,"class":"question","x":70.866,"y":434.659,"height":15.948,"width":192.108},{"pagenumber":22.0,"form":"Blood Sampling","OID":"CD_SER","Domain":null,"order":6.0,"PreText":"Date of Collection","Question":null,"CDASH":"CDDAT","CDASHTYPE":"SANOFI","SDTM":"","SDTMTYPE":"","codename":null,"codelist":null,"class":"question","x":70.866,"y":417.671,"height":15.744,"width":88.536},{"pagenumber":22.0,"form":"Blood Sampling","OID":"CD_SER","Domain":null,"order":7.0,"PreText":"Comment","Question":null,"CDASH":"CDCOVAL","CDASHTYPE":"SANOFI","SDTM":"","SDTMTYPE":"","codename":null,"codelist":null,"class":"question","x":70.866,"y":400.671,"height":15.744,"width":47.28},{"pagenumber":23.0,"form":"Vaccination","OID":"EX_08","Domain":"EX","order":2.0,"PreText":"Treatment Name","Question":"What was the study treatment?","CDASH":"EXTRT","CDASHTYPE":"IG","SDTM":"EXTRT","SDTMTYPE":"IG","codename":null,"codelist":null,"class":"question","x":70.866,"y":666.671,"height":15.744,"width":80.856},{"pagenumber":23.0,"form":"Vaccination","OID":"EX_08","Domain":null,"order":3.0,"PreText":"Has vaccination been performed?","Question":null,"CDASH":"EXOCCUR","CDASHTYPE":"SANOFI","SDTM":"","SDTMTYPE":"","codename":"NY_YN","codelist":"Y;N","class":"question","x":70.866,"y":621.671,"height":15.744,"width":160.776},{"pagenumber":23.0,"form":"Vaccination","OID":"EX_08","Domain":null,"order":4.0,"PreText":"Reason Vaccination Not Performed","Question":null,"CDASH":"EXREASND","CDASHTYPE":"SANOFI","SDTM":"","SDTMTYPE":"","codename":null,"codelist":null,"class":"question","x":70.866,"y":586.671,"height":15.744,"width":170.796},{"pagenumber":23.0,"form":"Vaccination","OID":"EX_08","Domain":null,"order":5.0,"PreText":"If yes, complete the following questions.","Question":null,"CDASH":"PROMPT_EXSTDAT","CDASHTYPE":"SANOFI","SDTM":"","SDTMTYPE":"","codename":null,"codelist":null,"class":"question","x":70.866,"y":569.659,"height":15.948,"width":192.108},{"pagenumber":23.0,"form":"Vaccination","OID":"EX_08","Domain":"EX","order":6.0,"PreText":"Date","Question":"What was the [intended\/actual] [study treatment\/dose] [start] date?","CDASH":"EXSTDAT","CDASHTYPE":"IG","SDTM":"EXSTDTC","SDTMTYPE":"IG","codename":null,"codelist":null,"class":"question","x":80.866,"y":552.671,"height":15.744,"width":22.62},{"pagenumber":23.0,"form":"Vaccination","OID":"EX_08","Domain":"EX","order":7.0,"PreText":"Dose Number","Question":"What is the study treatment label identifier?","CDASH":"EXREFID","CDASHTYPE":"IG","SDTM":"EXREFID","SDTMTYPE":"IG","codename":null,"codelist":null,"class":"question","x":80.866,"y":535.671,"height":15.744,"width":66.948},{"pagenumber":23.0,"form":"Vaccination","OID":"EX_08","Domain":"EX","order":8.0,"PreText":"Route","Question":"What was the route of administration (of the study treatment)?","CDASH":"EXROUTE","CDASHTYPE":"IG","SDTM":"EXROUTE","SDTMTYPE":"IG","codename":"ROUTE_05","codelist":"INTRAMUSCULAR;INTRADERMAL;SUBCUTANEOUS","class":"question","x":80.866,"y":518.671,"height":15.744,"width":28.632},{"pagenumber":23.0,"form":"Vaccination","OID":"EX_08","Domain":"EX","order":9.0,"PreText":"Site of Administration","Question":"What was the anatomical location of the (study treatment) administration?","CDASH":"EXLOC","CDASHTYPE":"IG","SDTM":"EXLOC","SDTMTYPE":"IG","codename":"LOC_01","codelist":"UPPER ARM;BUTTOCK;THIGH","class":"question","x":80.866,"y":467.671,"height":15.744,"width":107.22},{"pagenumber":23.0,"form":"Vaccination","OID":"EX_08","Domain":"EX","order":10.0,"PreText":"Side","Question":"What was the side of the anatomical location of the (study treatment) administration?","CDASH":"EXLAT","CDASHTYPE":"IG","SDTM":"EXLAT","SDTMTYPE":"IG","codename":"LAT_01","codelist":"LEFT;RIGHT","class":"question","x":80.866,"y":416.671,"height":15.744,"width":21.312},{"pagenumber":23.0,"form":"Vaccination","OID":"EX_08","Domain":null,"order":11.0,"PreText":"Comment","Question":null,"CDASH":"EXCOVAL","CDASHTYPE":"SANOFI","SDTM":"","SDTMTYPE":"","codename":null,"codelist":null,"class":"question","x":80.866,"y":381.671,"height":15.744,"width":47.28},{"pagenumber":24.0,"form":"Immediate Unsolicited Systemic Events","OID":"AE_VAC_IMUSE","Domain":null,"order":2.0,"PreText":"Did any unsolicited systemic adverse events occur within 30 minutes after vaccination?","Question":null,"CDASH":"AEIMYN","CDASHTYPE":"SANOFI","SDTM":"","SDTMTYPE":"","codename":null,"codelist":null,"class":"question","x":70.866,"y":666.671,"height":15.744,"width":290.34},{"pagenumber":25.0,"form":"Injection Site Pain","OID":"FA_VAC_PAIN","Domain":"FA","order":2.0,"PreText":"Category of Reaction","Question":"What [is\/was] the [type\/category\/name] (of the [measurement\/test\/examination\/specimen\/sample])?","CDASH":"FACAT","CDASHTYPE":"IG","SDTM":"FACAT","SDTMTYPE":"IG","codename":"AECAT","codelist":"ADVERSE EVENT;ADVERSE EVENT OF SPECIAL INTEREST;ALLERGIC REACTION;ALT INCREASE;ASTHMA EXACERBATION EVENT;BLEEDING EVENT;BONE FRACTURE;DRUG ALLERGY EVENT;EPISTAXIS EVENT;FOREIGN BODY REACTION EVENT;HYPERCALCEMIA;HYPOGLYCEMIA;INCREASED CALCITONIN;INCREASED LIPASE\/AMYLASE;INFECTION EVENT;INJECTION SITE REACTION;METABOLIC ACIDOSIS EVENT;NEUROLOGIC DISORDER;OVERDOSE;PANCREATIC EVENT;PERIPHERAL NEUROPATHY EVENT;PREGNANCY;RENAL FAILURE;SERIOUS HYPOGLYCEMIA;SOLICITED;SUSPECTED OR CONFIRMED CEREBROVASCULAR EVENT;SUSPECTED OR CONFIRMED DIABETIC KETOACIDOSIS;SUSPECTED OR CONFIRMED HEART FAILURE;SUSPECTED OR CONFIRMED MYOCARDIAL INFARCTION \/ UNSTABLE ANGINA;UNSOLICITED;VASCULITIS EVENT;OTHER","class":"question","x":70.866,"y":666.671,"height":15.744,"width":102.528},{"pagenumber":25.0,"form":"Injection Site Pain","OID":"FA_VAC_PAIN","Domain":"FA","order":3.0,"PreText":"Subcategory of Reaction","Question":"What [is\/was] the [type\/subcategory\/name] (of the [measurement\/test\/examination\/specimen\/sample])?","CDASH":"FASCAT","CDASHTYPE":"IG","SDTM":"FASCAT","SDTMTYPE":"IG","codename":"AESCAT_01","codelist":"ADMINISTRATION SITE;SYSTEMIC","class":"question","x":70.866,"y":77.671,"height":15.744,"width":118.524},{"pagenumber":26.0,"form":"Injection Site Pain","OID":"FA_VAC_PAIN","Domain":"FA","order":2.0,"PreText":"Solicited Reaction Name","Question":"[Sponsored-defined phrase]","CDASH":"FAOBJ","CDASHTYPE":"IG","SDTM":"FAOBJ","SDTMTYPE":"IG","codename":null,"codelist":null,"class":"question","x":70.866,"y":647.671,"height":15.744,"width":119.808},{"pagenumber":26.0,"form":"Injection Site Pain","OID":"FA_VAC_PAIN","Domain":null,"order":3.0,"PreText":"Did the subject report Injection Site Pain at least once between Day 00 and Day 07 after vaccination?","Question":null,"CDASH":"PROMPT_FA_01","CDASHTYPE":"SANOFI","SDTM":"","SDTMTYPE":"","codename":null,"codelist":null,"class":"question","x":70.866,"y":630.659,"height":15.948,"width":426.204},{"pagenumber":26.0,"form":"Injection Site Pain","OID":"FA_VAC_PAIN","Domain":null,"order":5.0,"PreText":"Injection Site Pain","Question":null,"CDASH":"FAOCCUR","CDASHTYPE":"SANOFI","SDTM":"","SDTMTYPE":"","codename":"NY_YN","codelist":"Y;N","class":"question","x":70.866,"y":599.671,"height":15.744,"width":88.548},{"pagenumber":26.0,"form":"Injection Site Pain","OID":"FA_VAC_PAIN","Domain":null,"order":9.0,"PreText":"If the answer is NO, then leave all the fields below blank.","Question":null,"CDASH":"PROMPT_FA_02","CDASHTYPE":"SANOFI","SDTM":"","SDTMTYPE":"","codename":null,"codelist":null,"class":"question","x":70.866,"y":564.659,"height":15.948,"width":274.68},{"pagenumber":26.0,"form":"Injection Site Pain","OID":"FA_VAC_PAIN","Domain":null,"order":10.0,"PreText":"Action Taken (Check all that apply)","Question":null,"CDASH":"PROMPT_FAACN","CDASHTYPE":"SANOFI","SDTM":"","SDTMTYPE":"","codename":null,"codelist":null,"class":"question","x":70.866,"y":547.671,"height":15.948,"width":173.448},{"pagenumber":26.0,"form":"Injection Site Pain","OID":"FA_VAC_PAIN","Domain":null,"order":11.0,"PreText":"None","Question":null,"CDASH":"FAACTN","CDASHTYPE":"SANOFI","SDTM":"","SDTMTYPE":"","codename":null,"codelist":null,"class":"question","x":80.866,"y":530.671,"height":15.744,"width":25.98},{"pagenumber":26.0,"form":"Injection Site Pain","OID":"FA_VAC_PAIN","Domain":null,"order":12.0,"PreText":"Medication","Question":null,"CDASH":"FAACMED","CDASHTYPE":"SANOFI","SDTM":"","SDTMTYPE":"","codename":null,"codelist":null,"class":"question","x":80.866,"y":513.671,"height":15.744,"width":54.588},{"pagenumber":26.0,"form":"Injection Site Pain","OID":"FA_VAC_PAIN","Domain":null,"order":13.0,"PreText":"Health Care Provider Contact","Question":null,"CDASH":"FAACTHC","CDASHTYPE":"SANOFI","SDTM":"","SDTMTYPE":"","codename":null,"codelist":null,"class":"question","x":80.866,"y":496.671,"height":15.744,"width":142.14},{"pagenumber":26.0,"form":"Injection Site Pain","OID":"FA_VAC_PAIN","Domain":null,"order":14.0,"PreText":"Hospitalized","Question":null,"CDASH":"FAACTHO","CDASHTYPE":"SANOFI","SDTM":"","SDTMTYPE":"","codename":null,"codelist":null,"class":"question","x":80.866,"y":479.671,"height":15.744,"width":60.576},{"pagenumber":26.0,"form":"Injection Site Pain","OID":"FA_VAC_PAIN","Domain":null,"order":15.0,"PreText":"Enter the Maximum daily Intensity from Day 00 to Day 07. If the Intensity is missing, select Unknown.","Question":null,"CDASH":"PROMPT_INT","CDASHTYPE":"SANOFI","SDTM":"","SDTMTYPE":"","codename":null,"codelist":null,"class":"question","x":70.866,"y":462.659,"height":15.948,"width":439.536},{"pagenumber":26.0,"form":"Injection Site Pain","OID":"FA_VAC_PAIN","Domain":null,"order":16.0,"PreText":"Enter the Maximum Intensity considering the interval from Day 08 until the End Date. If the Intensity is missing, select Unknown.","Question":null,"CDASH":"PROMPT_MXINT","CDASHTYPE":"SANOFI","SDTM":"","SDTMTYPE":"","codename":null,"codelist":null,"class":"question","x":70.866,"y":448.659,"height":15.948,"width":48.972},{"pagenumber":26.0,"form":"Injection Site Pain","OID":"FA_VAC_PAIN","Domain":null,"order":17.0,"PreText":"Intensity at Day 00","Question":null,"CDASH":"FAINT00","CDASHTYPE":"SANOFI","SDTM":"","SDTMTYPE":"","codename":"AESEVMD_02","codelist":"MILD;MODERATE;SEVERE;UNKNOWN;NONE","class":"question","x":80.866,"y":431.671,"height":15.744,"width":91.572},{"pagenumber":26.0,"form":"Injection Site Pain","OID":"FA_VAC_PAIN","Domain":null,"order":41.0,"PreText":"Intensity at Day 01","Question":null,"CDASH":"FAINT01","CDASHTYPE":"SANOFI","SDTM":"","SDTMTYPE":"","codename":"AESEVMD_02","codelist":"MILD;MODERATE;SEVERE;UNKNOWN;NONE","class":"question","x":80.866,"y":348.671,"height":15.744,"width":91.572},{"pagenumber":26.0,"form":"Injection Site Pain","OID":"FA_VAC_PAIN","Domain":null,"order":42.0,"PreText":"Intensity at Day 02","Question":null,"CDASH":"FAINT02","CDASHTYPE":"SANOFI","SDTM":"","SDTMTYPE":"","codename":"AESEVMD_02","codelist":"MILD;MODERATE;SEVERE;UNKNOWN;NONE","class":"question","x":80.866,"y":265.671,"height":15.744,"width":91.572},{"pagenumber":26.0,"form":"Injection Site Pain","OID":"FA_VAC_PAIN","Domain":null,"order":43.0,"PreText":"Intensity at Day 03","Question":null,"CDASH":"FAINT03","CDASHTYPE":"SANOFI","SDTM":"","SDTMTYPE":"","codename":"AESEVMD_02","codelist":"MILD;MODERATE;SEVERE;UNKNOWN;NONE","class":"question","x":80.866,"y":182.671,"height":15.744,"width":91.572},{"pagenumber":26.0,"form":"Injection Site Pain","OID":"FA_VAC_PAIN","Domain":null,"order":44.0,"PreText":"Intensity at Day 04","Question":null,"CDASH":"FAINT04","CDASHTYPE":"SANOFI","SDTM":"","SDTMTYPE":"","codename":"AESEVMD_02","codelist":"MILD;MODERATE;SEVERE;UNKNOWN;NONE","class":"question","x":80.866,"y":99.671,"height":15.744,"width":91.572},{"pagenumber":27.0,"form":"Injection Site Pain","OID":"FA_VAC_PAIN","Domain":null,"order":0.0,"PreText":"Discontinuation of study vaccination","Question":null,"CDASH":"FAACNC","CDASHTYPE":"SANOFI","SDTM":"","SDTMTYPE":"","codename":null,"codelist":null,"class":"unassigned","x":-100.0,"y":760.0,"height":15.0,"width":100.0},{"pagenumber":27.0,"form":"Injection Site Pain","OID":"FA_VAC_PAIN","Domain":null,"order":2.0,"PreText":"Intensity at Day 05","Question":null,"CDASH":"FAINT05","CDASHTYPE":"SANOFI","SDTM":"","SDTMTYPE":"","codename":"AESEVMD_02","codelist":"MILD;MODERATE;SEVERE;UNKNOWN;NONE","class":"question","x":80.866,"y":631.671,"height":15.744,"width":91.572},{"pagenumber":27.0,"form":"Injection Site Pain","OID":"FA_VAC_PAIN","Domain":null,"order":3.0,"PreText":"Intensity at Day 06","Question":null,"CDASH":"FAINT06","CDASHTYPE":"SANOFI","SDTM":"","SDTMTYPE":"","codename":"AESEVMD_02","codelist":"MILD;MODERATE;SEVERE;UNKNOWN;NONE","class":"question","x":80.866,"y":548.671,"height":15.744,"width":91.572},{"pagenumber":27.0,"form":"Injection Site Pain","OID":"FA_VAC_PAIN","Domain":null,"order":4.0,"PreText":"Intensity at Day 07","Question":null,"CDASH":"FAINT07","CDASHTYPE":"SANOFI","SDTM":"","SDTMTYPE":"","codename":"AESEVMD_02","codelist":"MILD;MODERATE;SEVERE;UNKNOWN;NONE","class":"question","x":80.866,"y":465.671,"height":15.744,"width":91.572},{"pagenumber":27.0,"form":"Injection Site Pain","OID":"FA_VAC_PAIN","Domain":null,"order":22.0,"PreText":"If a reaction is ongoing after Day 07, enter the Maximum Intensity available at the time of reporting.","Question":null,"CDASH":"PROMPT_ONGOING","CDASHTYPE":"SANOFI","SDTM":"","SDTMTYPE":"","codename":null,"codelist":null,"class":"question","x":70.866,"y":382.659,"height":15.948,"width":433.212},{"pagenumber":27.0,"form":"Injection Site Pain","OID":"FA_VAC_PAIN","Domain":null,"order":24.0,"PreText":"Ongoing after Day 07?","Question":null,"CDASH":"FAONGO","CDASHTYPE":"SANOFI","SDTM":"","SDTMTYPE":"","codename":null,"codelist":null,"class":"question","x":80.866,"y":351.671,"height":15.744,"width":110.232},{"pagenumber":27.0,"form":"Injection Site Pain","OID":"FA_VAC_PAIN","Domain":null,"order":25.0,"PreText":"When the End Date is obtained, ensure that the Maximum Intensity is still correct while considering the interval from Day 8 until the End Date.","Question":null,"CDASH":"PROMPT_FASEV1","CDASHTYPE":"SANOFI","SDTM":"","SDTMTYPE":"","codename":null,"codelist":null,"class":"question","x":70.866,"y":334.659,"height":15.948,"width":480.156},{"pagenumber":27.0,"form":"Injection Site Pain","OID":"FA_VAC_PAIN","Domain":null,"order":27.0,"PreText":"End date","Question":null,"CDASH":"FAENDAT","CDASHTYPE":"SANOFI","SDTM":"","SDTMTYPE":"","codename":null,"codelist":null,"class":"question","x":80.866,"y":303.671,"height":15.744,"width":42.276},{"pagenumber":27.0,"form":"Injection Site Pain","OID":"FA_VAC_PAIN","Domain":null,"order":30.0,"PreText":"Maximum Intensity after Day 07","Question":null,"CDASH":"FAINTMX","CDASHTYPE":"SANOFI","SDTM":"","SDTMTYPE":"","codename":"AESEVMD_01","codelist":"MILD;MODERATE;SEVERE;UNKNOWN","class":"question","x":80.866,"y":255.671,"height":15.744,"width":157.836},{"pagenumber":27.0,"form":"Injection Site Pain","OID":"FA_VAC_PAIN","Domain":null,"order":31.0,"PreText":"Caused Study Termination","Question":null,"CDASH":"FADIS","CDASHTYPE":"SANOFI","SDTM":"","SDTMTYPE":"","codename":"NY_YN","codelist":"Y;N","class":"question","x":70.866,"y":188.671,"height":15.744,"width":128.532},{"pagenumber":27.0,"form":"Injection Site Pain","OID":"FA_VAC_PAIN","Domain":null,"order":32.0,"PreText":"Intensity Method at Day 00","Question":null,"CDASH":"FAMETH00","CDASHTYPE":"SANOFI","SDTM":"","SDTMTYPE":"","codename":null,"codelist":null,"class":"question","x":70.866,"y":153.671,"height":15.744,"width":131.88},{"pagenumber":27.0,"form":"Injection Site Pain","OID":"FA_VAC_PAIN","Domain":null,"order":33.0,"PreText":"Intensity Method at Day 01","Question":null,"CDASH":"FAMETH01","CDASHTYPE":"SANOFI","SDTM":"","SDTMTYPE":"","codename":null,"codelist":null,"class":"question","x":70.866,"y":136.671,"height":15.744,"width":131.88},{"pagenumber":27.0,"form":"Injection Site Pain","OID":"FA_VAC_PAIN","Domain":null,"order":34.0,"PreText":"Intensity Method at Day 02","Question":null,"CDASH":"FAMETH02","CDASHTYPE":"SANOFI","SDTM":"","SDTMTYPE":"","codename":null,"codelist":null,"class":"question","x":70.866,"y":119.671,"height":15.744,"width":131.88},{"pagenumber":27.0,"form":"Injection Site Pain","OID":"FA_VAC_PAIN","Domain":null,"order":35.0,"PreText":"Intensity Method at Day 03","Question":null,"CDASH":"FAMETH03","CDASHTYPE":"SANOFI","SDTM":"","SDTMTYPE":"","codename":null,"codelist":null,"class":"question","x":70.866,"y":102.671,"height":15.744,"width":131.88},{"pagenumber":27.0,"form":"Injection Site Pain","OID":"FA_VAC_PAIN","Domain":null,"order":36.0,"PreText":"Intensity Method at Day 04","Question":null,"CDASH":"FAMETH04","CDASHTYPE":"SANOFI","SDTM":"","SDTMTYPE":"","codename":null,"codelist":null,"class":"question","x":70.866,"y":85.671,"height":15.744,"width":131.88},{"pagenumber":27.0,"form":"Injection Site Pain","OID":"FA_VAC_PAIN","Domain":null,"order":37.0,"PreText":"Intensity Method at Day 05","Question":null,"CDASH":"FAMETH05","CDASHTYPE":"SANOFI","SDTM":"","SDTMTYPE":"","codename":null,"codelist":null,"class":"question","x":70.866,"y":68.671,"height":15.744,"width":131.88},{"pagenumber":28.0,"form":"Injection Site Pain","OID":"FA_VAC_PAIN","Domain":null,"order":2.0,"PreText":"Intensity Method at Day 06","Question":null,"CDASH":"FAMETH06","CDASHTYPE":"SANOFI","SDTM":"","SDTMTYPE":"","codename":null,"codelist":null,"class":"question","x":70.866,"y":666.671,"height":15.744,"width":131.88},{"pagenumber":28.0,"form":"Injection Site Pain","OID":"FA_VAC_PAIN","Domain":null,"order":3.0,"PreText":"Intensity Method at Day 07","Question":null,"CDASH":"FAMETH07","CDASHTYPE":"SANOFI","SDTM":"","SDTMTYPE":"","codename":null,"codelist":null,"class":"question","x":70.866,"y":649.671,"height":15.744,"width":131.88},{"pagenumber":28.0,"form":"Injection Site Pain","OID":"FA_VAC_PAIN","Domain":null,"order":4.0,"PreText":"Maximum Intensity Method","Question":null,"CDASH":"FAMETHMX","CDASHTYPE":"SANOFI","SDTM":"","SDTMTYPE":"","codename":null,"codelist":null,"class":"question","x":70.866,"y":632.671,"height":15.744,"width":135.216},{"pagenumber":29.0,"form":"Injection Site Erythema","OID":"FA_VAC_ERYTHEMA","Domain":"FA","order":2.0,"PreText":"Category of Reaction","Question":"What [is\/was] the [type\/category\/name] (of the [measurement\/test\/examination\/specimen\/sample])?","CDASH":"FACAT","CDASHTYPE":"IG","SDTM":"FACAT","SDTMTYPE":"IG","codename":"AECAT","codelist":"ADVERSE EVENT;ADVERSE EVENT OF SPECIAL INTEREST;ALLERGIC REACTION;ALT INCREASE;ASTHMA EXACERBATION EVENT;BLEEDING EVENT;BONE FRACTURE;DRUG ALLERGY EVENT;EPISTAXIS EVENT;FOREIGN BODY REACTION EVENT;HYPERCALCEMIA;HYPOGLYCEMIA;INCREASED CALCITONIN;INCREASED LIPASE\/AMYLASE;INFECTION EVENT;INJECTION SITE REACTION;METABOLIC ACIDOSIS EVENT;NEUROLOGIC DISORDER;OVERDOSE;PANCREATIC EVENT;PERIPHERAL NEUROPATHY EVENT;PREGNANCY;RENAL FAILURE;SERIOUS HYPOGLYCEMIA;SOLICITED;SUSPECTED OR CONFIRMED CEREBROVASCULAR EVENT;SUSPECTED OR CONFIRMED DIABETIC KETOACIDOSIS;SUSPECTED OR CONFIRMED HEART FAILURE;SUSPECTED OR CONFIRMED MYOCARDIAL INFARCTION \/ UNSTABLE ANGINA;UNSOLICITED;VASCULITIS EVENT;OTHER","class":"question","x":70.866,"y":666.671,"height":15.744,"width":102.528},{"pagenumber":29.0,"form":"Injection Site Erythema","OID":"FA_VAC_ERYTHEMA","Domain":"FA","order":3.0,"PreText":"Subcategory of Reaction","Question":"What [is\/was] the [type\/subcategory\/name] (of the [measurement\/test\/examination\/specimen\/sample])?","CDASH":"FASCAT","CDASHTYPE":"IG","SDTM":"FASCAT","SDTMTYPE":"IG","codename":"AESCAT_01","codelist":"ADMINISTRATION SITE;SYSTEMIC","class":"question","x":70.866,"y":77.671,"height":15.744,"width":118.524},{"pagenumber":30.0,"form":"Injection Site Erythema","OID":"FA_VAC_ERYTHEMA","Domain":"FA","order":3.0,"PreText":"Solicited Reaction Name","Question":"[Sponsored-defined phrase]","CDASH":"FAOBJ","CDASHTYPE":"IG","SDTM":"FAOBJ","SDTMTYPE":"IG","codename":null,"codelist":null,"class":"question","x":70.866,"y":647.671,"height":15.744,"width":119.808},{"pagenumber":30.0,"form":"Injection Site Erythema","OID":"FA_VAC_ERYTHEMA","Domain":null,"order":4.0,"PreText":"Did the subject report Injection Site Erythema at least once between Day 00 and Day 07 after vaccination?","Question":null,"CDASH":"PROMPT_FA_01","CDASHTYPE":"SANOFI","SDTM":"","SDTMTYPE":"","codename":null,"codelist":null,"class":"question","x":70.866,"y":630.659,"height":15.948,"width":450.168},{"pagenumber":30.0,"form":"Injection Site Erythema","OID":"FA_VAC_ERYTHEMA","Domain":null,"order":6.0,"PreText":"Injection Site Erythema","Question":null,"CDASH":"FAOCCUR","CDASHTYPE":"SANOFI","SDTM":"","SDTMTYPE":"","codename":"NY_YN","codelist":"Y;N","class":"question","x":70.866,"y":599.671,"height":15.744,"width":113.832},{"pagenumber":30.0,"form":"Injection Site Erythema","OID":"FA_VAC_ERYTHEMA","Domain":null,"order":9.0,"PreText":"If the answer is NO, then leave all the fields below blank.","Question":null,"CDASH":"PROMPT_FA_02","CDASHTYPE":"SANOFI","SDTM":"","SDTMTYPE":"","codename":null,"codelist":null,"class":"question","x":70.866,"y":564.659,"height":15.948,"width":274.68},{"pagenumber":30.0,"form":"Injection Site Erythema","OID":"FA_VAC_ERYTHEMA","Domain":null,"order":10.0,"PreText":"Action Taken (Check all that apply)","Question":null,"CDASH":"PROMPT_FAACN","CDASHTYPE":"SANOFI","SDTM":"","SDTMTYPE":"","codename":null,"codelist":null,"class":"question","x":70.866,"y":547.671,"height":15.948,"width":173.448},{"pagenumber":30.0,"form":"Injection Site Erythema","OID":"FA_VAC_ERYTHEMA","Domain":null,"order":11.0,"PreText":"None","Question":null,"CDASH":"FAACTN","CDASHTYPE":"SANOFI","SDTM":"","SDTMTYPE":"","codename":null,"codelist":null,"class":"question","x":80.866,"y":530.671,"height":15.744,"width":25.98},{"pagenumber":30.0,"form":"Injection Site Erythema","OID":"FA_VAC_ERYTHEMA","Domain":null,"order":12.0,"PreText":"Medication","Question":null,"CDASH":"FAACMED","CDASHTYPE":"SANOFI","SDTM":"","SDTMTYPE":"","codename":null,"codelist":null,"class":"question","x":80.866,"y":513.671,"height":15.744,"width":54.588},{"pagenumber":30.0,"form":"Injection Site Erythema","OID":"FA_VAC_ERYTHEMA","Domain":null,"order":13.0,"PreText":"Health Care Provider Contact","Question":null,"CDASH":"FAACTHC","CDASHTYPE":"SANOFI","SDTM":"","SDTMTYPE":"","codename":null,"codelist":null,"class":"question","x":80.866,"y":496.671,"height":15.744,"width":142.14},{"pagenumber":30.0,"form":"Injection Site Erythema","OID":"FA_VAC_ERYTHEMA","Domain":null,"order":14.0,"PreText":"Hospitalized","Question":null,"CDASH":"FAACTHO","CDASHTYPE":"SANOFI","SDTM":"","SDTMTYPE":"","codename":null,"codelist":null,"class":"question","x":80.866,"y":479.671,"height":15.744,"width":60.576},{"pagenumber":30.0,"form":"Injection Site Erythema","OID":"FA_VAC_ERYTHEMA","Domain":null,"order":15.0,"PreText":"Enter the Maximum daily Measurement from Day 00 to Day 07. If the Measurement is missing, enter 'UNK' for Unknown.","Question":null,"CDASH":"PROMPT_MEAS","CDASHTYPE":"SANOFI","SDTM":"","SDTMTYPE":"","codename":null,"codelist":null,"class":"question","x":70.866,"y":462.659,"height":15.948,"width":457.272},{"pagenumber":30.0,"form":"Injection Site Erythema","OID":"FA_VAC_ERYTHEMA","Domain":null,"order":16.0,"PreText":"Enter the Maximum Measurement considering the interval from Day 08 until the End Date. If the Measurement is missing, enter 'UNK' for Unknown.","Question":null,"CDASH":"PROMPT_MXMEAS","CDASHTYPE":"SANOFI","SDTM":"","SDTMTYPE":"","codename":null,"codelist":null,"class":"question","x":70.866,"y":448.659,"height":15.948,"width":126.348},{"pagenumber":30.0,"form":"Injection Site Erythema","OID":"FA_VAC_ERYTHEMA","Domain":null,"order":17.0,"PreText":"Measurement at Day 00","Question":null,"CDASH":"FAMEAS00","CDASHTYPE":"SANOFI","SDTM":"","SDTMTYPE":"","codename":null,"codelist":null,"class":"question","x":75.866,"y":431.671,"height":15.744,"width":114.864},{"pagenumber":30.0,"form":"Injection Site Erythema","OID":"FA_VAC_ERYTHEMA","Domain":null,"order":21.0,"PreText":"Measurement at Day 01","Question":null,"CDASH":"FAMEAS01","CDASHTYPE":"SANOFI","SDTM":"","SDTMTYPE":"","codename":null,"codelist":null,"class":"question","x":75.866,"y":341.671,"height":15.744,"width":114.864},{"pagenumber":30.0,"form":"Injection Site Erythema","OID":"FA_VAC_ERYTHEMA","Domain":null,"order":24.0,"PreText":"Measurement at Day 02","Question":null,"CDASH":"FAMEAS02","CDASHTYPE":"SANOFI","SDTM":"","SDTMTYPE":"","codename":null,"codelist":null,"class":"question","x":75.866,"y":251.671,"height":15.744,"width":114.864},{"pagenumber":30.0,"form":"Injection Site Erythema","OID":"FA_VAC_ERYTHEMA","Domain":null,"order":27.0,"PreText":"Measurement at Day 03","Question":null,"CDASH":"FAMEAS03","CDASHTYPE":"SANOFI","SDTM":"","SDTMTYPE":"","codename":null,"codelist":null,"class":"question","x":75.866,"y":161.671,"height":15.744,"width":114.864},{"pagenumber":30.0,"form":"Injection Site Erythema","OID":"FA_VAC_ERYTHEMA","Domain":null,"order":30.0,"PreText":"Measurement at Day 04","Question":null,"CDASH":"FAMEAS04","CDASHTYPE":"SANOFI","SDTM":"","SDTMTYPE":"","codename":null,"codelist":null,"class":"question","x":75.866,"y":71.671,"height":15.744,"width":114.864},{"pagenumber":31.0,"form":"Injection Site Erythema","OID":"FA_VAC_ERYTHEMA","Domain":null,"order":0.0,"PreText":"Discontinuation of study vaccination","Question":null,"CDASH":"FAACNC","CDASHTYPE":"SANOFI","SDTM":"","SDTMTYPE":"","codename":null,"codelist":null,"class":"unassigned","x":-100.0,"y":760.0,"height":15.0,"width":100.0},{"pagenumber":31.0,"form":"Injection Site Erythema","OID":"FA_VAC_ERYTHEMA","Domain":null,"order":2.0,"PreText":"If the reaction is too large to measure, check 'NM' for Non Measurable","Question":null,"CDASH":"FAMSNMMX","CDASHTYPE":"SANOFI","SDTM":"","SDTMTYPE":"","codename":null,"codelist":null,"class":"question","x":80.866,"y":666.671,"height":15.744,"width":280.008},{"pagenumber":31.0,"form":"Injection Site Erythema","OID":"FA_VAC_ERYTHEMA","Domain":null,"order":4.0,"PreText":"Measurement at Day 05","Question":null,"CDASH":"FAMEAS05","CDASHTYPE":"SANOFI","SDTM":"","SDTMTYPE":"","codename":null,"codelist":null,"class":"question","x":75.866,"y":614.671,"height":15.744,"width":114.864},{"pagenumber":31.0,"form":"Injection Site Erythema","OID":"FA_VAC_ERYTHEMA","Domain":null,"order":7.0,"PreText":"Measurement at Day 06","Question":null,"CDASH":"FAMEAS06","CDASHTYPE":"SANOFI","SDTM":"","SDTMTYPE":"","codename":null,"codelist":null,"class":"question","x":75.866,"y":524.671,"height":15.744,"width":114.864},{"pagenumber":31.0,"form":"Injection Site Erythema","OID":"FA_VAC_ERYTHEMA","Domain":null,"order":10.0,"PreText":"Measurement at Day 07","Question":null,"CDASH":"FAMEAS07","CDASHTYPE":"SANOFI","SDTM":"","SDTMTYPE":"","codename":null,"codelist":null,"class":"question","x":75.866,"y":434.671,"height":15.744,"width":114.864},{"pagenumber":31.0,"form":"Injection Site Erythema","OID":"FA_VAC_ERYTHEMA","Domain":null,"order":20.0,"PreText":"If a reaction is ongoing after Day 07, enter the Maximum Measurement available at the time of reporting.","Question":null,"CDASH":"PROMPT_ONGOING","CDASHTYPE":"SANOFI","SDTM":"","SDTMTYPE":"","codename":null,"codelist":null,"class":"question","x":70.866,"y":344.659,"height":15.948,"width":457.212},{"pagenumber":31.0,"form":"Injection Site Erythema","OID":"FA_VAC_ERYTHEMA","Domain":null,"order":22.0,"PreText":"Ongoing after Day 07?","Question":null,"CDASH":"FAONGO","CDASHTYPE":"SANOFI","SDTM":"","SDTMTYPE":"","codename":null,"codelist":null,"class":"question","x":80.866,"y":313.671,"height":15.744,"width":110.232},{"pagenumber":31.0,"form":"Injection Site Erythema","OID":"FA_VAC_ERYTHEMA","Domain":null,"order":23.0,"PreText":"When the End Date is obtained, ensure that the Maximum Measurement is still correct while considering the interval from Day 8 until the End Date.","Question":null,"CDASH":"PROMPT_FASEV1","CDASHTYPE":"SANOFI","SDTM":"","SDTMTYPE":"","codename":null,"codelist":null,"class":"question","x":70.866,"y":296.659,"height":15.948,"width":444.54},{"pagenumber":31.0,"form":"Injection Site Erythema","OID":"FA_VAC_ERYTHEMA","Domain":null,"order":25.0,"PreText":"End date","Question":null,"CDASH":"FAENDAT","CDASHTYPE":"SANOFI","SDTM":"","SDTMTYPE":"","codename":null,"codelist":null,"class":"question","x":80.866,"y":265.671,"height":15.744,"width":42.276},{"pagenumber":31.0,"form":"Injection Site Erythema","OID":"FA_VAC_ERYTHEMA","Domain":null,"order":28.0,"PreText":"Maximum Measurement after Day 07","Question":null,"CDASH":"FAMEASMX","CDASHTYPE":"SANOFI","SDTM":"","SDTMTYPE":"","codename":null,"codelist":null,"class":"question","x":75.866,"y":217.671,"height":15.744,"width":181.128},{"pagenumber":31.0,"form":"Injection Site Erythema","OID":"FA_VAC_ERYTHEMA","Domain":null,"order":33.0,"PreText":"Measurement Unit","Question":null,"CDASH":"FAMEASU","CDASHTYPE":"SANOFI","SDTM":"","SDTMTYPE":"","codename":"UNIT","codelist":"%;% INHIBITION;%(v\/v);%(w\/v);%(w\/w);%\/min;%cells\/area;\/100 HPFs;\/100 WBC;\/10^3 cells;\/HPF;\/L;\/LPF;\/VF;\/dL;\/day;\/h;\/kg;\/mL;\/mm3;\/month;\/nL;\/pL;\/uL;\/wk;\/year;1\/dilution;100 IU\/mL;10^10\/L;10^11\/L;10^12 IU\/L;10^12\/L;10^3 CFU;10^3 CFU\/g;10^3 CFU\/mL;10^3 DNA copies\/mL;10^3 RNA copies\/mL;10^3 copies\/mL;10^3 organisms;10^3 organisms\/g;10^3 organisms\/mL;10^3\/L;10^3\/hpf;10^3\/mm3;10^3\/mm4;10^3\/uL;10^4\/L;10^4\/hpf;10^5\/L;10^5\/hpf;10^6 CFU;10^6 CFU\/g;10^6 CFU\/mL;10^6 DNA copies\/mL;10^6 IU;10^6 IU\/mL;10^6 RNA copies\/mL;10^6 copies\/mL;10^6 organisms;10^6 organisms\/g;10^6 organisms\/mL;10^6 organisms\/mg;10^6\/L;10^6\/g;10^6\/hpf;10^6\/mm3;10^6\/uL;10^7\/L;10^8\/L;10^9 CFU;10^9 CFU\/g;10^9 CFU\/mL;10^9 organisms;10^9 organisms\/g;10^9 organisms\/mL;10^9 organisms\/mg;10^9\/L;AFU;AI;AMPULE;APL U\/mL;APPLICATION;ASC;AU;AU\/mL;AU\/min;AgU\/mL;Antibody Unit;BAG;BAR;BAU;BAU\/mL;BE\/mL;BEATS\/MIN;BISCUIT;BLOCKS;BOLUS;BOTTLE;BOX;BREATHS\/MIN;BU;BU\/mL;Bq;Bq\/L;Bq\/g;Bq\/kg;Bq\/mL;Bq\/mg;Bq\/uL;Bq\/ug;C;CAE;CAN;CAPFUL;CAPLET;CAPSULE;CARTRIDGE;CASE;CCID 50\/dose;CCID 50\/mL;CFU\/g;CFU\/mL;CIGAR;CIGARETTE;COAT;COI;CONTAINER;CUP;CYLINDER;Ci;Ci\/L;Ci\/g;Ci\/kg;Ci\/mL;Ci\/mg;Ci\/uL;Ci\/ug;Coulomb;Ct;DAYS;DAgU;DAgU\/mL;DIOPTER;DISK;DNA copies\/mL;DPM;DRUM;EID 50\/dose;EID 50\/mL;ELISA unit;ELISA unit\/dose;ELISA unit\/mL;EU;Enzyme U;F;FEU;FINGERTIP UNIT;Farad;Frames\/s;GBq;GBq\/g;GBq\/mg;GBq\/ug;GI\/L;GLASS;GPL U\/mL;Gauss;Gy;HAU\/100 uL;HEP;HOMEOPATHIC DILUTION;HOURS;HPF;Hb Fract.;Hemolytic Unit;Henry;Hounsfield Unit;Hz;IMPLANT;INDEX VALUE;INHALATION;IU;IU\/L;IU\/dL;IU\/g;IU\/kg;IU\/kg\/h;IU\/mL;IU\/mg;IU^4;IV;Immune Status Ratio (ISR);JAR;Joule;KALLIKREIN INHIBITOR UNIT;KIT;L;L\/L;L\/h;L\/h\/m2;L\/kg;L\/min;L\/min\/m2;L\/s;LB;LOZENGE;LPF;Log10 ELISA unit;Log10 ELISA unit\/dose;Log10 GEq\/mL;Log10 PFU\/mL;MBq;MBq\/uL;MESF;MFI;MHz;MONTHS;MPL U\/mL;Mile;NEBULE;NEEDLE GAUGE;NIU;Newton;PACK;PACKAGE;PACKET;PATCH;PELLET;PFU;PFU\/dose;PFU\/mL;PIPE;PIXEL;PIXELS\/cm;PIXELS\/in;PNU\/mL;POINT;POUCH;PRESSOR UNITS;PUFF;Pa;Pack Year;Perfusion unit;Perfusion unit*sec;QUANTITY SUFFICIENT;RATIO;RING;RNA copies\/mL;Rad;Roentgen;SACHET;SBE\/mL;SCO;SCOOPFUL;SFC;SFC\/10^6 PBMC;SPRAY;SQU\/mL;STANDARD DRINK\/day;STEPS;STRIP;SUPPOSITORY;SYRINGE;Shock Wave;Siemens;Signals\/cells;Sv;TABLET;TAMPON;TCID 50\/dose;TI\/L;TRACE;TROCHE;TUBE;Tbsp;Tesla;Torr;U;U.CARR;U\/L;U\/animal;U\/cL;U\/dL;U\/g;U\/g\/day;U\/g\/h;U\/g\/min;U\/kg;U\/kg\/day;U\/kg\/h;U\/kg\/min;U\/m2;U\/m2\/day;U\/m2\/h;U\/m2\/min;U\/mL;U\/mg;U\/mmol;V;V\/sec;VIAL;VIRTUAL PIXEL;WAFER;WEEKS;Watt;Weber;YEARS;ag;amol;amp;amu;anti-Xa IU;anti-Xa IU\/mL;atm;bel;cGy;cL;cal;cc;cd;cells\/mm3;cells\/uL;cg;cm;cm H2O;cm\/min;cm\/s;cm2;cmol;cmol\/L;copies\/mL;copies\/uL;cpm;cs;cy\/cm;cycle\/min;cycle\/sec;dB;dL;damol\/L;deg;dmol;dpm\/0.5 mL;dpm\/100mg;dpm\/mL;dpm\/mg;dram;dyn;eq;fL;fg;fmol;fmol\/L;fmol\/g;foz_br;foz_us;fraction of 1;ft;ft2;ft3;g;g\/24h;g\/L;g\/animal;g\/animal\/day;g\/animal\/wk;g\/cage;g\/cage\/day;g\/cage\/wk;g\/cm2;g\/dL;g\/day;g\/g;g\/g Creatinine;g\/g\/day;g\/kg;g\/kg\/day;g\/m2;g\/m2\/day;g\/mol;grain;gtt;hPa;in;in2;kAU\/L;kBq;kBq\/uL;kDa;kHz;kIU;kN\/cm2;kPa;kPa\/L\/sec;kU\/L;kUSP;kat;kcal;kg;kg\/L;kg\/cm;kg\/cm2;kg\/m2;km;km\/h;ks;lbf;lm;log EID 50\/dose;log10 CCID 50\/dose;log10 CFU\/g;log10 CFU\/mL;log10 IU\/mL;log10 TCID 50\/dose;log10 copies\/mL;lx;m;m\/sec;m\/sec2;m2;m3;mCi;mCi\/L;mCi\/kg;mEq;mEq\/L;mEq\/dL;mEq\/day;mEq\/g;mEq\/kg;mEq\/mL;mEq\/mmol;mEq\/uL;mEq\/ug;mIU\/L;mIU\/mL;mJoule\/cm2;mL;mL\/animal;mL\/animal\/day;mL\/animal\/wk;mL\/breath;mL\/cage;mL\/cage\/day;mL\/cage\/wk;mL\/cm;mL\/cm H2O;mL\/dL;mL\/day;mL\/g;mL\/g\/day;mL\/g\/h;mL\/g\/min;mL\/h;mL\/h\/uL of lysat;mL\/kg;mL\/kg\/day;mL\/kg\/h;mL\/kg\/min;mL\/m2;mL\/m2\/day;mL\/m2\/h;mL\/m2\/min;mL\/min;mL\/min\/1.73m2;mL\/min\/SSA;mL\/min\/mmHg;mL\/mmHg;mL\/mmHg\/min\/L;mL\/s;mL\/sec\/1.73m2;mOsm;mOsm\/kg;mPa;mU\/L;mU\/mL;mV;mV*min;mV2\/Hz;mcg\/dL;mg;mg%;mg\/24h;mg\/L;mg\/L FEU;mg\/animal;mg\/dL;mg\/day;mg\/g;mg\/g Creatinine;mg\/g\/day;mg\/g\/h;mg\/g\/min;mg\/h;mg\/kg;mg\/kg\/day;mg\/kg\/h;mg\/kg\/min;mg\/m2;mg\/m2\/day;mg\/m2\/h;mg\/m2\/min;mg\/mL\/min;mg\/min;mg\/mmol Creatinine;mg\/mol;min;mkat;mm;mm\/2h;mm\/h;mm\/min;mm\/sec;mm2;mm3;mmHg;mmHg\/L\/min;mmHg\/sec;mmol;mmol FA\/mL\/h;mmol\/L;mmol\/day;mmol\/g;mmol\/kg;mmol\/min\/kPa;mmol\/min\/kPa\/L;mmol\/mol;mmol^2\/L^2;mol;mol\/L;mol\/g;mol\/mL;mol\/mg;mol\/mol;mph;msec;nCi;nL;nU\/cL;nU\/mL;ng;ng\/L;ng\/dL;ng\/mL;nkat;nkat\/L;nm;nmol;nmol BCE\/L;nmol BCE\/mmol;nmol\/L;nmol\/dL;nmol\/hr\/mg protein;nmol\/mL\/min;nmol\/min\/mg protein;nsec;ohm;osm;oz;pL;per min;per sec;pg;pg\/L;pg\/dL;pg\/mL;pkat;pm;pmol;pmol\/L;pmol\/min\/uL of lysat;pmol\/punch\/hr;pools\/day;pools\/h;ppb;ppm;ppth;pptr;psec;psi;pt_br;pt_us;rpm;sABC;sMEC;scm;sec;titer;tsp;tuberculin unit;tuberculin unit\/mL;uCi;uCi\/L;uCi\/kg;uEq;uEq\/L;uIU\/mL;uL;uL\/mL;uOsM;uU\/mL;uV;uV*sec;ug;ug\/L;ug\/animal;ug\/dL;ug\/day;ug\/g\/day;ug\/g\/h;ug\/g\/min;ug\/h;ug\/kg;ug\/kg\/day;ug\/kg\/h;ug\/kg\/min;ug\/m2;ug\/m2\/day;ug\/m2\/h;ug\/m2\/min;ug\/mL;ug\/mL\/h;ug\/min;ugEq;ukat;ukat\/L;um;um2;umol;umol\/L;umol\/L\/min;umol\/L\/sec;umol\/day;umol\/mg\/min;umol\/min;usec;v\/v;yd;NONE;OTHER","class":"question","x":70.866,"y":127.671,"height":15.744,"width":89.556},{"pagenumber":31.0,"form":"Injection Site Erythema","OID":"FA_VAC_ERYTHEMA","Domain":null,"order":34.0,"PreText":"Caused Study Termination","Question":null,"CDASH":"FADIS","CDASHTYPE":"SANOFI","SDTM":"","SDTMTYPE":"","codename":"NY_YN","codelist":"Y;N","class":"question","x":70.866,"y":108.671,"height":15.744,"width":128.532},{"pagenumber":31.0,"form":"Injection Site Erythema","OID":"FA_VAC_ERYTHEMA","Domain":null,"order":35.0,"PreText":"Measurement Method at Day 00","Question":null,"CDASH":"FAMETH00","CDASHTYPE":"SANOFI","SDTM":"","SDTMTYPE":"","codename":null,"codelist":null,"class":"question","x":70.866,"y":73.671,"height":15.744,"width":155.172},{"pagenumber":32.0,"form":"Injection Site Erythema","OID":"FA_VAC_ERYTHEMA","Domain":null,"order":2.0,"PreText":"Measurement Method at Day 01","Question":null,"CDASH":"FAMETH01","CDASHTYPE":"SANOFI","SDTM":"","SDTMTYPE":"","codename":null,"codelist":null,"class":"question","x":70.866,"y":666.671,"height":15.744,"width":155.172},{"pagenumber":32.0,"form":"Injection Site Erythema","OID":"FA_VAC_ERYTHEMA","Domain":null,"order":3.0,"PreText":"Measurement Method at Day 02","Question":null,"CDASH":"FAMETH02","CDASHTYPE":"SANOFI","SDTM":"","SDTMTYPE":"","codename":null,"codelist":null,"class":"question","x":70.866,"y":649.671,"height":15.744,"width":155.172},{"pagenumber":32.0,"form":"Injection Site Erythema","OID":"FA_VAC_ERYTHEMA","Domain":null,"order":4.0,"PreText":"Measurement Method at Day 03","Question":null,"CDASH":"FAMETH03","CDASHTYPE":"SANOFI","SDTM":"","SDTMTYPE":"","codename":null,"codelist":null,"class":"question","x":70.866,"y":632.671,"height":15.744,"width":155.172},{"pagenumber":32.0,"form":"Injection Site Erythema","OID":"FA_VAC_ERYTHEMA","Domain":null,"order":5.0,"PreText":"Measurement Method at Day 04","Question":null,"CDASH":"FAMETH04","CDASHTYPE":"SANOFI","SDTM":"","SDTMTYPE":"","codename":null,"codelist":null,"class":"question","x":70.866,"y":615.671,"height":15.744,"width":155.172},{"pagenumber":32.0,"form":"Injection Site Erythema","OID":"FA_VAC_ERYTHEMA","Domain":null,"order":6.0,"PreText":"Measurement Method at Day 05","Question":null,"CDASH":"FAMETH05","CDASHTYPE":"SANOFI","SDTM":"","SDTMTYPE":"","codename":null,"codelist":null,"class":"question","x":70.866,"y":598.671,"height":15.744,"width":155.172},{"pagenumber":32.0,"form":"Injection Site Erythema","OID":"FA_VAC_ERYTHEMA","Domain":null,"order":7.0,"PreText":"Measurement Method at Day 06","Question":null,"CDASH":"FAMETH06","CDASHTYPE":"SANOFI","SDTM":"","SDTMTYPE":"","codename":null,"codelist":null,"class":"question","x":70.866,"y":581.671,"height":15.744,"width":155.172},{"pagenumber":32.0,"form":"Injection Site Erythema","OID":"FA_VAC_ERYTHEMA","Domain":null,"order":8.0,"PreText":"Measurement Method at Day 07","Question":null,"CDASH":"FAMETH07","CDASHTYPE":"SANOFI","SDTM":"","SDTMTYPE":"","codename":null,"codelist":null,"class":"question","x":70.866,"y":564.671,"height":15.744,"width":155.172},{"pagenumber":32.0,"form":"Injection Site Erythema","OID":"FA_VAC_ERYTHEMA","Domain":null,"order":9.0,"PreText":"Maximum Measurement Method","Question":null,"CDASH":"FAMETHMX","CDASHTYPE":"SANOFI","SDTM":"","SDTMTYPE":"","codename":null,"codelist":null,"class":"question","x":70.866,"y":547.671,"height":15.744,"width":158.508},{"pagenumber":33.0,"form":"Injection Site Ecchymosis","OID":"FA_VAC_ECCHYMOSIS","Domain":"FA","order":2.0,"PreText":"Category of Reaction","Question":"What [is\/was] the [type\/category\/name] (of the [measurement\/test\/examination\/specimen\/sample])?","CDASH":"FACAT","CDASHTYPE":"IG","SDTM":"FACAT","SDTMTYPE":"IG","codename":"AECAT","codelist":"ADVERSE EVENT;ADVERSE EVENT OF SPECIAL INTEREST;ALLERGIC REACTION;ALT INCREASE;ASTHMA EXACERBATION EVENT;BLEEDING EVENT;BONE FRACTURE;DRUG ALLERGY EVENT;EPISTAXIS EVENT;FOREIGN BODY REACTION EVENT;HYPERCALCEMIA;HYPOGLYCEMIA;INCREASED CALCITONIN;INCREASED LIPASE\/AMYLASE;INFECTION EVENT;INJECTION SITE REACTION;METABOLIC ACIDOSIS EVENT;NEUROLOGIC DISORDER;OVERDOSE;PANCREATIC EVENT;PERIPHERAL NEUROPATHY EVENT;PREGNANCY;RENAL FAILURE;SERIOUS HYPOGLYCEMIA;SOLICITED;SUSPECTED OR CONFIRMED CEREBROVASCULAR EVENT;SUSPECTED OR CONFIRMED DIABETIC KETOACIDOSIS;SUSPECTED OR CONFIRMED HEART FAILURE;SUSPECTED OR CONFIRMED MYOCARDIAL INFARCTION \/ UNSTABLE ANGINA;UNSOLICITED;VASCULITIS EVENT;OTHER","class":"question","x":70.866,"y":666.671,"height":15.744,"width":102.528},{"pagenumber":33.0,"form":"Injection Site Ecchymosis","OID":"FA_VAC_ECCHYMOSIS","Domain":"FA","order":3.0,"PreText":"Subcategory of Reaction","Question":"What [is\/was] the [type\/subcategory\/name] (of the [measurement\/test\/examination\/specimen\/sample])?","CDASH":"FASCAT","CDASHTYPE":"IG","SDTM":"FASCAT","SDTMTYPE":"IG","codename":"AESCAT_01","codelist":"ADMINISTRATION SITE;SYSTEMIC","class":"question","x":70.866,"y":77.671,"height":15.744,"width":118.524},{"pagenumber":34.0,"form":"Injection Site Ecchymosis","OID":"FA_VAC_ECCHYMOSIS","Domain":"FA","order":3.0,"PreText":"Solicited Reaction Name","Question":"[Sponsored-defined phrase]","CDASH":"FAOBJ","CDASHTYPE":"IG","SDTM":"FAOBJ","SDTMTYPE":"IG","codename":null,"codelist":null,"class":"question","x":70.866,"y":647.671,"height":15.744,"width":119.808},{"pagenumber":34.0,"form":"Injection Site Ecchymosis","OID":"FA_VAC_ECCHYMOSIS","Domain":null,"order":4.0,"PreText":"Did the subject report Injection Site Ecchymosis at least once between Day 00 and Day 07 after vaccination?","Question":null,"CDASH":"PROMPT_FA_01","CDASHTYPE":"SANOFI","SDTM":"","SDTMTYPE":"","codename":null,"codelist":null,"class":"question","x":70.866,"y":630.659,"height":15.948,"width":460.152},{"pagenumber":34.0,"form":"Injection Site Ecchymosis","OID":"FA_VAC_ECCHYMOSIS","Domain":null,"order":6.0,"PreText":"Injection Site Ecchymosis","Question":null,"CDASH":"FAOCCUR","CDASHTYPE":"SANOFI","SDTM":"","SDTMTYPE":"","codename":"NY_YN","codelist":"Y;N","class":"question","x":70.866,"y":599.671,"height":15.744,"width":125.172},{"pagenumber":34.0,"form":"Injection Site Ecchymosis","OID":"FA_VAC_ECCHYMOSIS","Domain":null,"order":9.0,"PreText":"If the answer is NO, then leave all the fields below blank.","Question":null,"CDASH":"PROMPT_FA_02","CDASHTYPE":"SANOFI","SDTM":"","SDTMTYPE":"","codename":null,"codelist":null,"class":"question","x":70.866,"y":564.659,"height":15.948,"width":274.68},{"pagenumber":34.0,"form":"Injection Site Ecchymosis","OID":"FA_VAC_ECCHYMOSIS","Domain":null,"order":10.0,"PreText":"Action Taken (Check all that apply)","Question":null,"CDASH":"PROMPT_FAACN","CDASHTYPE":"SANOFI","SDTM":"","SDTMTYPE":"","codename":null,"codelist":null,"class":"question","x":70.866,"y":547.671,"height":15.948,"width":173.448},{"pagenumber":34.0,"form":"Injection Site Ecchymosis","OID":"FA_VAC_ECCHYMOSIS","Domain":null,"order":11.0,"PreText":"None","Question":null,"CDASH":"FAACTN","CDASHTYPE":"SANOFI","SDTM":"","SDTMTYPE":"","codename":null,"codelist":null,"class":"question","x":80.866,"y":530.671,"height":15.744,"width":25.98},{"pagenumber":34.0,"form":"Injection Site Ecchymosis","OID":"FA_VAC_ECCHYMOSIS","Domain":null,"order":12.0,"PreText":"Medication","Question":null,"CDASH":"FAACMED","CDASHTYPE":"SANOFI","SDTM":"","SDTMTYPE":"","codename":null,"codelist":null,"class":"question","x":80.866,"y":513.671,"height":15.744,"width":54.588},{"pagenumber":34.0,"form":"Injection Site Ecchymosis","OID":"FA_VAC_ECCHYMOSIS","Domain":null,"order":13.0,"PreText":"Health Care Provider Contact","Question":null,"CDASH":"FAACTHC","CDASHTYPE":"SANOFI","SDTM":"","SDTMTYPE":"","codename":null,"codelist":null,"class":"question","x":80.866,"y":496.671,"height":15.744,"width":142.14},{"pagenumber":34.0,"form":"Injection Site Ecchymosis","OID":"FA_VAC_ECCHYMOSIS","Domain":null,"order":14.0,"PreText":"Hospitalized","Question":null,"CDASH":"FAACTHO","CDASHTYPE":"SANOFI","SDTM":"","SDTMTYPE":"","codename":null,"codelist":null,"class":"question","x":80.866,"y":479.671,"height":15.744,"width":60.576},{"pagenumber":34.0,"form":"Injection Site Ecchymosis","OID":"FA_VAC_ECCHYMOSIS","Domain":null,"order":15.0,"PreText":"Enter the Maximum daily Measurement from Day 00 to Day 07. If the Measurement is missing, enter 'UNK' for Unknown.","Question":null,"CDASH":"PROMPT_MEAS","CDASHTYPE":"SANOFI","SDTM":"","SDTMTYPE":"","codename":null,"codelist":null,"class":"question","x":70.866,"y":462.659,"height":15.948,"width":457.272},{"pagenumber":34.0,"form":"Injection Site Ecchymosis","OID":"FA_VAC_ECCHYMOSIS","Domain":null,"order":16.0,"PreText":"Enter the Maximum Measurement considering the interval from Day 08 until the End Date. If the Measurement is missing, enter 'UNK' for Unknown.","Question":null,"CDASH":"PROMPT_MXMEAS","CDASHTYPE":"SANOFI","SDTM":"","SDTMTYPE":"","codename":null,"codelist":null,"class":"question","x":70.866,"y":448.659,"height":15.948,"width":126.348},{"pagenumber":34.0,"form":"Injection Site Ecchymosis","OID":"FA_VAC_ECCHYMOSIS","Domain":null,"order":17.0,"PreText":"Measurement at Day 00","Question":null,"CDASH":"FAMEAS00","CDASHTYPE":"SANOFI","SDTM":"","SDTMTYPE":"","codename":null,"codelist":null,"class":"question","x":75.866,"y":431.671,"height":15.744,"width":114.864},{"pagenumber":34.0,"form":"Injection Site Ecchymosis","OID":"FA_VAC_ECCHYMOSIS","Domain":null,"order":21.0,"PreText":"Measurement at Day 01","Question":null,"CDASH":"FAMEAS01","CDASHTYPE":"SANOFI","SDTM":"","SDTMTYPE":"","codename":null,"codelist":null,"class":"question","x":75.866,"y":341.671,"height":15.744,"width":114.864},{"pagenumber":34.0,"form":"Injection Site Ecchymosis","OID":"FA_VAC_ECCHYMOSIS","Domain":null,"order":24.0,"PreText":"Measurement at Day 02","Question":null,"CDASH":"FAMEAS02","CDASHTYPE":"SANOFI","SDTM":"","SDTMTYPE":"","codename":null,"codelist":null,"class":"question","x":75.866,"y":251.671,"height":15.744,"width":114.864},{"pagenumber":34.0,"form":"Injection Site Ecchymosis","OID":"FA_VAC_ECCHYMOSIS","Domain":null,"order":27.0,"PreText":"Measurement at Day 03","Question":null,"CDASH":"FAMEAS03","CDASHTYPE":"SANOFI","SDTM":"","SDTMTYPE":"","codename":null,"codelist":null,"class":"question","x":75.866,"y":161.671,"height":15.744,"width":114.864},{"pagenumber":34.0,"form":"Injection Site Ecchymosis","OID":"FA_VAC_ECCHYMOSIS","Domain":null,"order":30.0,"PreText":"Measurement at Day 04","Question":null,"CDASH":"FAMEAS04","CDASHTYPE":"SANOFI","SDTM":"","SDTMTYPE":"","codename":null,"codelist":null,"class":"question","x":75.866,"y":71.671,"height":15.744,"width":114.864},{"pagenumber":35.0,"form":"Injection Site Ecchymosis","OID":"FA_VAC_ECCHYMOSIS","Domain":null,"order":0.0,"PreText":"Discontinuation of study vaccination","Question":null,"CDASH":"FAACNC","CDASHTYPE":"SANOFI","SDTM":"","SDTMTYPE":"","codename":null,"codelist":null,"class":"unassigned","x":-100.0,"y":760.0,"height":15.0,"width":100.0},{"pagenumber":35.0,"form":"Injection Site Ecchymosis","OID":"FA_VAC_ECCHYMOSIS","Domain":null,"order":2.0,"PreText":"If the reaction is too large to measure, check 'NM' for Non Measurable","Question":null,"CDASH":"FAMSNMMX","CDASHTYPE":"SANOFI","SDTM":"","SDTMTYPE":"","codename":null,"codelist":null,"class":"question","x":80.866,"y":666.671,"height":15.744,"width":280.008},{"pagenumber":35.0,"form":"Injection Site Ecchymosis","OID":"FA_VAC_ECCHYMOSIS","Domain":null,"order":4.0,"PreText":"Measurement at Day 05","Question":null,"CDASH":"FAMEAS05","CDASHTYPE":"SANOFI","SDTM":"","SDTMTYPE":"","codename":null,"codelist":null,"class":"question","x":75.866,"y":614.671,"height":15.744,"width":114.864},{"pagenumber":35.0,"form":"Injection Site Ecchymosis","OID":"FA_VAC_ECCHYMOSIS","Domain":null,"order":7.0,"PreText":"Measurement at Day 06","Question":null,"CDASH":"FAMEAS06","CDASHTYPE":"SANOFI","SDTM":"","SDTMTYPE":"","codename":null,"codelist":null,"class":"question","x":75.866,"y":524.671,"height":15.744,"width":114.864},{"pagenumber":35.0,"form":"Injection Site Ecchymosis","OID":"FA_VAC_ECCHYMOSIS","Domain":null,"order":10.0,"PreText":"Measurement at Day 07","Question":null,"CDASH":"FAMEAS07","CDASHTYPE":"SANOFI","SDTM":"","SDTMTYPE":"","codename":null,"codelist":null,"class":"question","x":75.866,"y":434.671,"height":15.744,"width":114.864},{"pagenumber":35.0,"form":"Injection Site Ecchymosis","OID":"FA_VAC_ECCHYMOSIS","Domain":null,"order":20.0,"PreText":"If a reaction is ongoing after Day 07, enter the Maximum Measurement available at the time of reporting.","Question":null,"CDASH":"PROMPT_ONGOING","CDASHTYPE":"SANOFI","SDTM":"","SDTMTYPE":"","codename":null,"codelist":null,"class":"question","x":70.866,"y":344.659,"height":15.948,"width":457.212},{"pagenumber":35.0,"form":"Injection Site Ecchymosis","OID":"FA_VAC_ECCHYMOSIS","Domain":null,"order":22.0,"PreText":"Ongoing after Day 07?","Question":null,"CDASH":"FAONGO","CDASHTYPE":"SANOFI","SDTM":"","SDTMTYPE":"","codename":null,"codelist":null,"class":"question","x":80.866,"y":313.671,"height":15.744,"width":110.232},{"pagenumber":35.0,"form":"Injection Site Ecchymosis","OID":"FA_VAC_ECCHYMOSIS","Domain":null,"order":23.0,"PreText":"When the End Date is obtained, ensure that the Maximum Measurement is still correct while considering the interval from Day 8 until the End Date.","Question":null,"CDASH":"PROMPT_FASEV1","CDASHTYPE":"SANOFI","SDTM":"","SDTMTYPE":"","codename":null,"codelist":null,"class":"question","x":70.866,"y":296.659,"height":15.948,"width":444.54},{"pagenumber":35.0,"form":"Injection Site Ecchymosis","OID":"FA_VAC_ECCHYMOSIS","Domain":null,"order":25.0,"PreText":"End date","Question":null,"CDASH":"FAENDAT","CDASHTYPE":"SANOFI","SDTM":"","SDTMTYPE":"","codename":null,"codelist":null,"class":"question","x":80.866,"y":265.671,"height":15.744,"width":42.276},{"pagenumber":35.0,"form":"Injection Site Ecchymosis","OID":"FA_VAC_ECCHYMOSIS","Domain":null,"order":28.0,"PreText":"Maximum Measurement after Day 07","Question":null,"CDASH":"FAMEASMX","CDASHTYPE":"SANOFI","SDTM":"","SDTMTYPE":"","codename":null,"codelist":null,"class":"question","x":75.866,"y":217.671,"height":15.744,"width":181.128},{"pagenumber":35.0,"form":"Injection Site Ecchymosis","OID":"FA_VAC_ECCHYMOSIS","Domain":null,"order":33.0,"PreText":"Measurement Unit","Question":null,"CDASH":"FAMEASU","CDASHTYPE":"SANOFI","SDTM":"","SDTMTYPE":"","codename":"UNIT","codelist":"%;% INHIBITION;%(v\/v);%(w\/v);%(w\/w);%\/min;%cells\/area;\/100 HPFs;\/100 WBC;\/10^3 cells;\/HPF;\/L;\/LPF;\/VF;\/dL;\/day;\/h;\/kg;\/mL;\/mm3;\/month;\/nL;\/pL;\/uL;\/wk;\/year;1\/dilution;100 IU\/mL;10^10\/L;10^11\/L;10^12 IU\/L;10^12\/L;10^3 CFU;10^3 CFU\/g;10^3 CFU\/mL;10^3 DNA copies\/mL;10^3 RNA copies\/mL;10^3 copies\/mL;10^3 organisms;10^3 organisms\/g;10^3 organisms\/mL;10^3\/L;10^3\/hpf;10^3\/mm3;10^3\/mm4;10^3\/uL;10^4\/L;10^4\/hpf;10^5\/L;10^5\/hpf;10^6 CFU;10^6 CFU\/g;10^6 CFU\/mL;10^6 DNA copies\/mL;10^6 IU;10^6 IU\/mL;10^6 RNA copies\/mL;10^6 copies\/mL;10^6 organisms;10^6 organisms\/g;10^6 organisms\/mL;10^6 organisms\/mg;10^6\/L;10^6\/g;10^6\/hpf;10^6\/mm3;10^6\/uL;10^7\/L;10^8\/L;10^9 CFU;10^9 CFU\/g;10^9 CFU\/mL;10^9 organisms;10^9 organisms\/g;10^9 organisms\/mL;10^9 organisms\/mg;10^9\/L;AFU;AI;AMPULE;APL U\/mL;APPLICATION;ASC;AU;AU\/mL;AU\/min;AgU\/mL;Antibody Unit;BAG;BAR;BAU;BAU\/mL;BE\/mL;BEATS\/MIN;BISCUIT;BLOCKS;BOLUS;BOTTLE;BOX;BREATHS\/MIN;BU;BU\/mL;Bq;Bq\/L;Bq\/g;Bq\/kg;Bq\/mL;Bq\/mg;Bq\/uL;Bq\/ug;C;CAE;CAN;CAPFUL;CAPLET;CAPSULE;CARTRIDGE;CASE;CCID 50\/dose;CCID 50\/mL;CFU\/g;CFU\/mL;CIGAR;CIGARETTE;COAT;COI;CONTAINER;CUP;CYLINDER;Ci;Ci\/L;Ci\/g;Ci\/kg;Ci\/mL;Ci\/mg;Ci\/uL;Ci\/ug;Coulomb;Ct;DAYS;DAgU;DAgU\/mL;DIOPTER;DISK;DNA copies\/mL;DPM;DRUM;EID 50\/dose;EID 50\/mL;ELISA unit;ELISA unit\/dose;ELISA unit\/mL;EU;Enzyme U;F;FEU;FINGERTIP UNIT;Farad;Frames\/s;GBq;GBq\/g;GBq\/mg;GBq\/ug;GI\/L;GLASS;GPL U\/mL;Gauss;Gy;HAU\/100 uL;HEP;HOMEOPATHIC DILUTION;HOURS;HPF;Hb Fract.;Hemolytic Unit;Henry;Hounsfield Unit;Hz;IMPLANT;INDEX VALUE;INHALATION;IU;IU\/L;IU\/dL;IU\/g;IU\/kg;IU\/kg\/h;IU\/mL;IU\/mg;IU^4;IV;Immune Status Ratio (ISR);JAR;Joule;KALLIKREIN INHIBITOR UNIT;KIT;L;L\/L;L\/h;L\/h\/m2;L\/kg;L\/min;L\/min\/m2;L\/s;LB;LOZENGE;LPF;Log10 ELISA unit;Log10 ELISA unit\/dose;Log10 GEq\/mL;Log10 PFU\/mL;MBq;MBq\/uL;MESF;MFI;MHz;MONTHS;MPL U\/mL;Mile;NEBULE;NEEDLE GAUGE;NIU;Newton;PACK;PACKAGE;PACKET;PATCH;PELLET;PFU;PFU\/dose;PFU\/mL;PIPE;PIXEL;PIXELS\/cm;PIXELS\/in;PNU\/mL;POINT;POUCH;PRESSOR UNITS;PUFF;Pa;Pack Year;Perfusion unit;Perfusion unit*sec;QUANTITY SUFFICIENT;RATIO;RING;RNA copies\/mL;Rad;Roentgen;SACHET;SBE\/mL;SCO;SCOOPFUL;SFC;SFC\/10^6 PBMC;SPRAY;SQU\/mL;STANDARD DRINK\/day;STEPS;STRIP;SUPPOSITORY;SYRINGE;Shock Wave;Siemens;Signals\/cells;Sv;TABLET;TAMPON;TCID 50\/dose;TI\/L;TRACE;TROCHE;TUBE;Tbsp;Tesla;Torr;U;U.CARR;U\/L;U\/animal;U\/cL;U\/dL;U\/g;U\/g\/day;U\/g\/h;U\/g\/min;U\/kg;U\/kg\/day;U\/kg\/h;U\/kg\/min;U\/m2;U\/m2\/day;U\/m2\/h;U\/m2\/min;U\/mL;U\/mg;U\/mmol;V;V\/sec;VIAL;VIRTUAL PIXEL;WAFER;WEEKS;Watt;Weber;YEARS;ag;amol;amp;amu;anti-Xa IU;anti-Xa IU\/mL;atm;bel;cGy;cL;cal;cc;cd;cells\/mm3;cells\/uL;cg;cm;cm H2O;cm\/min;cm\/s;cm2;cmol;cmol\/L;copies\/mL;copies\/uL;cpm;cs;cy\/cm;cycle\/min;cycle\/sec;dB;dL;damol\/L;deg;dmol;dpm\/0.5 mL;dpm\/100mg;dpm\/mL;dpm\/mg;dram;dyn;eq;fL;fg;fmol;fmol\/L;fmol\/g;foz_br;foz_us;fraction of 1;ft;ft2;ft3;g;g\/24h;g\/L;g\/animal;g\/animal\/day;g\/animal\/wk;g\/cage;g\/cage\/day;g\/cage\/wk;g\/cm2;g\/dL;g\/day;g\/g;g\/g Creatinine;g\/g\/day;g\/kg;g\/kg\/day;g\/m2;g\/m2\/day;g\/mol;grain;gtt;hPa;in;in2;kAU\/L;kBq;kBq\/uL;kDa;kHz;kIU;kN\/cm2;kPa;kPa\/L\/sec;kU\/L;kUSP;kat;kcal;kg;kg\/L;kg\/cm;kg\/cm2;kg\/m2;km;km\/h;ks;lbf;lm;log EID 50\/dose;log10 CCID 50\/dose;log10 CFU\/g;log10 CFU\/mL;log10 IU\/mL;log10 TCID 50\/dose;log10 copies\/mL;lx;m;m\/sec;m\/sec2;m2;m3;mCi;mCi\/L;mCi\/kg;mEq;mEq\/L;mEq\/dL;mEq\/day;mEq\/g;mEq\/kg;mEq\/mL;mEq\/mmol;mEq\/uL;mEq\/ug;mIU\/L;mIU\/mL;mJoule\/cm2;mL;mL\/animal;mL\/animal\/day;mL\/animal\/wk;mL\/breath;mL\/cage;mL\/cage\/day;mL\/cage\/wk;mL\/cm;mL\/cm H2O;mL\/dL;mL\/day;mL\/g;mL\/g\/day;mL\/g\/h;mL\/g\/min;mL\/h;mL\/h\/uL of lysat;mL\/kg;mL\/kg\/day;mL\/kg\/h;mL\/kg\/min;mL\/m2;mL\/m2\/day;mL\/m2\/h;mL\/m2\/min;mL\/min;mL\/min\/1.73m2;mL\/min\/SSA;mL\/min\/mmHg;mL\/mmHg;mL\/mmHg\/min\/L;mL\/s;mL\/sec\/1.73m2;mOsm;mOsm\/kg;mPa;mU\/L;mU\/mL;mV;mV*min;mV2\/Hz;mcg\/dL;mg;mg%;mg\/24h;mg\/L;mg\/L FEU;mg\/animal;mg\/dL;mg\/day;mg\/g;mg\/g Creatinine;mg\/g\/day;mg\/g\/h;mg\/g\/min;mg\/h;mg\/kg;mg\/kg\/day;mg\/kg\/h;mg\/kg\/min;mg\/m2;mg\/m2\/day;mg\/m2\/h;mg\/m2\/min;mg\/mL\/min;mg\/min;mg\/mmol Creatinine;mg\/mol;min;mkat;mm;mm\/2h;mm\/h;mm\/min;mm\/sec;mm2;mm3;mmHg;mmHg\/L\/min;mmHg\/sec;mmol;mmol FA\/mL\/h;mmol\/L;mmol\/day;mmol\/g;mmol\/kg;mmol\/min\/kPa;mmol\/min\/kPa\/L;mmol\/mol;mmol^2\/L^2;mol;mol\/L;mol\/g;mol\/mL;mol\/mg;mol\/mol;mph;msec;nCi;nL;nU\/cL;nU\/mL;ng;ng\/L;ng\/dL;ng\/mL;nkat;nkat\/L;nm;nmol;nmol BCE\/L;nmol BCE\/mmol;nmol\/L;nmol\/dL;nmol\/hr\/mg protein;nmol\/mL\/min;nmol\/min\/mg protein;nsec;ohm;osm;oz;pL;per min;per sec;pg;pg\/L;pg\/dL;pg\/mL;pkat;pm;pmol;pmol\/L;pmol\/min\/uL of lysat;pmol\/punch\/hr;pools\/day;pools\/h;ppb;ppm;ppth;pptr;psec;psi;pt_br;pt_us;rpm;sABC;sMEC;scm;sec;titer;tsp;tuberculin unit;tuberculin unit\/mL;uCi;uCi\/L;uCi\/kg;uEq;uEq\/L;uIU\/mL;uL;uL\/mL;uOsM;uU\/mL;uV;uV*sec;ug;ug\/L;ug\/animal;ug\/dL;ug\/day;ug\/g\/day;ug\/g\/h;ug\/g\/min;ug\/h;ug\/kg;ug\/kg\/day;ug\/kg\/h;ug\/kg\/min;ug\/m2;ug\/m2\/day;ug\/m2\/h;ug\/m2\/min;ug\/mL;ug\/mL\/h;ug\/min;ugEq;ukat;ukat\/L;um;um2;umol;umol\/L;umol\/L\/min;umol\/L\/sec;umol\/day;umol\/mg\/min;umol\/min;usec;v\/v;yd;NONE;OTHER","class":"question","x":70.866,"y":127.671,"height":15.744,"width":89.556},{"pagenumber":35.0,"form":"Injection Site Ecchymosis","OID":"FA_VAC_ECCHYMOSIS","Domain":null,"order":34.0,"PreText":"Caused Study Termination","Question":null,"CDASH":"FADIS","CDASHTYPE":"SANOFI","SDTM":"","SDTMTYPE":"","codename":"NY_YN","codelist":"Y;N","class":"question","x":70.866,"y":108.671,"height":15.744,"width":128.532},{"pagenumber":36.0,"form":"Injection Site Swelling","OID":"FA_VAC_SWELLING","Domain":"FA","order":2.0,"PreText":"Category of Reaction","Question":"What [is\/was] the [type\/category\/name] (of the [measurement\/test\/examination\/specimen\/sample])?","CDASH":"FACAT","CDASHTYPE":"IG","SDTM":"FACAT","SDTMTYPE":"IG","codename":"AECAT","codelist":"ADVERSE EVENT;ADVERSE EVENT OF SPECIAL INTEREST;ALLERGIC REACTION;ALT INCREASE;ASTHMA EXACERBATION EVENT;BLEEDING EVENT;BONE FRACTURE;DRUG ALLERGY EVENT;EPISTAXIS EVENT;FOREIGN BODY REACTION EVENT;HYPERCALCEMIA;HYPOGLYCEMIA;INCREASED CALCITONIN;INCREASED LIPASE\/AMYLASE;INFECTION EVENT;INJECTION SITE REACTION;METABOLIC ACIDOSIS EVENT;NEUROLOGIC DISORDER;OVERDOSE;PANCREATIC EVENT;PERIPHERAL NEUROPATHY EVENT;PREGNANCY;RENAL FAILURE;SERIOUS HYPOGLYCEMIA;SOLICITED;SUSPECTED OR CONFIRMED CEREBROVASCULAR EVENT;SUSPECTED OR CONFIRMED DIABETIC KETOACIDOSIS;SUSPECTED OR CONFIRMED HEART FAILURE;SUSPECTED OR CONFIRMED MYOCARDIAL INFARCTION \/ UNSTABLE ANGINA;UNSOLICITED;VASCULITIS EVENT;OTHER","class":"question","x":70.866,"y":666.671,"height":15.744,"width":102.528},{"pagenumber":36.0,"form":"Injection Site Swelling","OID":"FA_VAC_SWELLING","Domain":"FA","order":3.0,"PreText":"Subcategory of Reaction","Question":"What [is\/was] the [type\/subcategory\/name] (of the [measurement\/test\/examination\/specimen\/sample])?","CDASH":"FASCAT","CDASHTYPE":"IG","SDTM":"FASCAT","SDTMTYPE":"IG","codename":"AESCAT_01","codelist":"ADMINISTRATION SITE;SYSTEMIC","class":"question","x":70.866,"y":77.671,"height":15.744,"width":118.524},{"pagenumber":37.0,"form":"Injection Site Swelling","OID":"FA_VAC_SWELLING","Domain":"FA","order":3.0,"PreText":"Solicited Reaction Name","Question":"[Sponsored-defined phrase]","CDASH":"FAOBJ","CDASHTYPE":"IG","SDTM":"FAOBJ","SDTMTYPE":"IG","codename":null,"codelist":null,"class":"question","x":70.866,"y":647.671,"height":15.744,"width":119.808},{"pagenumber":37.0,"form":"Injection Site Swelling","OID":"FA_VAC_SWELLING","Domain":null,"order":4.0,"PreText":"Did the subject report Injection Site Swelling at least once between Day 00 and Day 07 after vaccination?","Question":null,"CDASH":"PROMPT_FA_01","CDASHTYPE":"SANOFI","SDTM":"","SDTMTYPE":"","codename":null,"codelist":null,"class":"question","x":70.866,"y":630.659,"height":15.948,"width":444.84},{"pagenumber":37.0,"form":"Injection Site Swelling","OID":"FA_VAC_SWELLING","Domain":null,"order":6.0,"PreText":"Injection Site Swelling","Question":null,"CDASH":"FAOCCUR","CDASHTYPE":"SANOFI","SDTM":"","SDTMTYPE":"","codename":"NY_YN","codelist":"Y;N","class":"question","x":70.866,"y":599.671,"height":15.744,"width":109.86},{"pagenumber":37.0,"form":"Injection Site Swelling","OID":"FA_VAC_SWELLING","Domain":null,"order":9.0,"PreText":"If the answer is NO, then leave all the fields below blank.","Question":null,"CDASH":"PROMPT_FA_02","CDASHTYPE":"SANOFI","SDTM":"","SDTMTYPE":"","codename":null,"codelist":null,"class":"question","x":70.866,"y":564.659,"height":15.948,"width":274.68},{"pagenumber":37.0,"form":"Injection Site Swelling","OID":"FA_VAC_SWELLING","Domain":null,"order":10.0,"PreText":"Action Taken (Check all that apply)","Question":null,"CDASH":"PROMPT_FAACN","CDASHTYPE":"SANOFI","SDTM":"","SDTMTYPE":"","codename":null,"codelist":null,"class":"question","x":70.866,"y":547.671,"height":15.948,"width":173.448},{"pagenumber":37.0,"form":"Injection Site Swelling","OID":"FA_VAC_SWELLING","Domain":null,"order":11.0,"PreText":"None","Question":null,"CDASH":"FAACTN","CDASHTYPE":"SANOFI","SDTM":"","SDTMTYPE":"","codename":null,"codelist":null,"class":"question","x":80.866,"y":530.671,"height":15.744,"width":25.98},{"pagenumber":37.0,"form":"Injection Site Swelling","OID":"FA_VAC_SWELLING","Domain":null,"order":12.0,"PreText":"Medication","Question":null,"CDASH":"FAACMED","CDASHTYPE":"SANOFI","SDTM":"","SDTMTYPE":"","codename":null,"codelist":null,"class":"question","x":80.866,"y":513.671,"height":15.744,"width":54.588},{"pagenumber":37.0,"form":"Injection Site Swelling","OID":"FA_VAC_SWELLING","Domain":null,"order":13.0,"PreText":"Health Care Provider Contact","Question":null,"CDASH":"FAACTHC","CDASHTYPE":"SANOFI","SDTM":"","SDTMTYPE":"","codename":null,"codelist":null,"class":"question","x":80.866,"y":496.671,"height":15.744,"width":142.14},{"pagenumber":37.0,"form":"Injection Site Swelling","OID":"FA_VAC_SWELLING","Domain":null,"order":14.0,"PreText":"Hospitalized","Question":null,"CDASH":"FAACTHO","CDASHTYPE":"SANOFI","SDTM":"","SDTMTYPE":"","codename":null,"codelist":null,"class":"question","x":80.866,"y":479.671,"height":15.744,"width":60.576},{"pagenumber":37.0,"form":"Injection Site Swelling","OID":"FA_VAC_SWELLING","Domain":null,"order":15.0,"PreText":"Enter the Maximum daily Measurement from Day 00 to Day 07. If the Measurement is missing, enter 'UNK' for Unknown.","Question":null,"CDASH":"PROMPT_MEAS","CDASHTYPE":"SANOFI","SDTM":"","SDTMTYPE":"","codename":null,"codelist":null,"class":"question","x":70.866,"y":462.659,"height":15.948,"width":457.272},{"pagenumber":37.0,"form":"Injection Site Swelling","OID":"FA_VAC_SWELLING","Domain":null,"order":16.0,"PreText":"Enter the Maximum Measurement considering the interval from Day 08 until the End Date. If the Measurement is missing, enter 'UNK' for Unknown.","Question":null,"CDASH":"PROMPT_MXMEAS","CDASHTYPE":"SANOFI","SDTM":"","SDTMTYPE":"","codename":null,"codelist":null,"class":"question","x":70.866,"y":448.659,"height":15.948,"width":126.348},{"pagenumber":37.0,"form":"Injection Site Swelling","OID":"FA_VAC_SWELLING","Domain":null,"order":17.0,"PreText":"Measurement at Day 00","Question":null,"CDASH":"FAMEAS00","CDASHTYPE":"SANOFI","SDTM":"","SDTMTYPE":"","codename":null,"codelist":null,"class":"question","x":75.866,"y":431.671,"height":15.744,"width":114.864},{"pagenumber":37.0,"form":"Injection Site Swelling","OID":"FA_VAC_SWELLING","Domain":null,"order":21.0,"PreText":"Measurement at Day 01","Question":null,"CDASH":"FAMEAS01","CDASHTYPE":"SANOFI","SDTM":"","SDTMTYPE":"","codename":null,"codelist":null,"class":"question","x":75.866,"y":341.671,"height":15.744,"width":114.864},{"pagenumber":37.0,"form":"Injection Site Swelling","OID":"FA_VAC_SWELLING","Domain":null,"order":24.0,"PreText":"Measurement at Day 02","Question":null,"CDASH":"FAMEAS02","CDASHTYPE":"SANOFI","SDTM":"","SDTMTYPE":"","codename":null,"codelist":null,"class":"question","x":75.866,"y":251.671,"height":15.744,"width":114.864},{"pagenumber":37.0,"form":"Injection Site Swelling","OID":"FA_VAC_SWELLING","Domain":null,"order":27.0,"PreText":"Measurement at Day 03","Question":null,"CDASH":"FAMEAS03","CDASHTYPE":"SANOFI","SDTM":"","SDTMTYPE":"","codename":null,"codelist":null,"class":"question","x":75.866,"y":161.671,"height":15.744,"width":114.864},{"pagenumber":37.0,"form":"Injection Site Swelling","OID":"FA_VAC_SWELLING","Domain":null,"order":30.0,"PreText":"Measurement at Day 04","Question":null,"CDASH":"FAMEAS04","CDASHTYPE":"SANOFI","SDTM":"","SDTMTYPE":"","codename":null,"codelist":null,"class":"question","x":75.866,"y":71.671,"height":15.744,"width":114.864},{"pagenumber":38.0,"form":"Injection Site Swelling","OID":"FA_VAC_SWELLING","Domain":null,"order":0.0,"PreText":"Discontinuation of study vaccination","Question":null,"CDASH":"FAACNC","CDASHTYPE":"SANOFI","SDTM":"","SDTMTYPE":"","codename":null,"codelist":null,"class":"unassigned","x":-100.0,"y":760.0,"height":15.0,"width":100.0},{"pagenumber":38.0,"form":"Injection Site Swelling","OID":"FA_VAC_SWELLING","Domain":null,"order":2.0,"PreText":"If the reaction is too large to measure, check 'NM' for Non Measurable","Question":null,"CDASH":"FAMSNMMX","CDASHTYPE":"SANOFI","SDTM":"","SDTMTYPE":"","codename":null,"codelist":null,"class":"question","x":80.866,"y":666.671,"height":15.744,"width":280.008},{"pagenumber":38.0,"form":"Injection Site Swelling","OID":"FA_VAC_SWELLING","Domain":null,"order":4.0,"PreText":"Measurement at Day 05","Question":null,"CDASH":"FAMEAS05","CDASHTYPE":"SANOFI","SDTM":"","SDTMTYPE":"","codename":null,"codelist":null,"class":"question","x":75.866,"y":614.671,"height":15.744,"width":114.864},{"pagenumber":38.0,"form":"Injection Site Swelling","OID":"FA_VAC_SWELLING","Domain":null,"order":7.0,"PreText":"Measurement at Day 06","Question":null,"CDASH":"FAMEAS06","CDASHTYPE":"SANOFI","SDTM":"","SDTMTYPE":"","codename":null,"codelist":null,"class":"question","x":75.866,"y":524.671,"height":15.744,"width":114.864},{"pagenumber":38.0,"form":"Injection Site Swelling","OID":"FA_VAC_SWELLING","Domain":null,"order":10.0,"PreText":"Measurement at Day 07","Question":null,"CDASH":"FAMEAS07","CDASHTYPE":"SANOFI","SDTM":"","SDTMTYPE":"","codename":null,"codelist":null,"class":"question","x":75.866,"y":434.671,"height":15.744,"width":114.864},{"pagenumber":38.0,"form":"Injection Site Swelling","OID":"FA_VAC_SWELLING","Domain":null,"order":20.0,"PreText":"If a reaction is ongoing after Day 07, enter the Maximum Measurement available at the time of reporting.","Question":null,"CDASH":"PROMPT_ONGOING","CDASHTYPE":"SANOFI","SDTM":"","SDTMTYPE":"","codename":null,"codelist":null,"class":"question","x":70.866,"y":344.659,"height":15.948,"width":457.212},{"pagenumber":38.0,"form":"Injection Site Swelling","OID":"FA_VAC_SWELLING","Domain":null,"order":22.0,"PreText":"Ongoing after Day 07?","Question":null,"CDASH":"FAONGO","CDASHTYPE":"SANOFI","SDTM":"","SDTMTYPE":"","codename":null,"codelist":null,"class":"question","x":80.866,"y":313.671,"height":15.744,"width":110.232},{"pagenumber":38.0,"form":"Injection Site Swelling","OID":"FA_VAC_SWELLING","Domain":null,"order":23.0,"PreText":"When the End Date is obtained, ensure that the Maximum Measurement is still correct while considering the interval from Day 8 until the End Date.","Question":null,"CDASH":"PROMPT_FASEV1","CDASHTYPE":"SANOFI","SDTM":"","SDTMTYPE":"","codename":null,"codelist":null,"class":"question","x":70.866,"y":296.659,"height":15.948,"width":444.54},{"pagenumber":38.0,"form":"Injection Site Swelling","OID":"FA_VAC_SWELLING","Domain":null,"order":25.0,"PreText":"End date","Question":null,"CDASH":"FAENDAT","CDASHTYPE":"SANOFI","SDTM":"","SDTMTYPE":"","codename":null,"codelist":null,"class":"question","x":80.866,"y":265.671,"height":15.744,"width":42.276},{"pagenumber":38.0,"form":"Injection Site Swelling","OID":"FA_VAC_SWELLING","Domain":null,"order":28.0,"PreText":"Maximum Measurement after Day 07","Question":null,"CDASH":"FAMEASMX","CDASHTYPE":"SANOFI","SDTM":"","SDTMTYPE":"","codename":null,"codelist":null,"class":"question","x":75.866,"y":217.671,"height":15.744,"width":181.128},{"pagenumber":38.0,"form":"Injection Site Swelling","OID":"FA_VAC_SWELLING","Domain":null,"order":33.0,"PreText":"Measurement Unit","Question":null,"CDASH":"FAMEASU","CDASHTYPE":"SANOFI","SDTM":"","SDTMTYPE":"","codename":"UNIT","codelist":"%;% INHIBITION;%(v\/v);%(w\/v);%(w\/w);%\/min;%cells\/area;\/100 HPFs;\/100 WBC;\/10^3 cells;\/HPF;\/L;\/LPF;\/VF;\/dL;\/day;\/h;\/kg;\/mL;\/mm3;\/month;\/nL;\/pL;\/uL;\/wk;\/year;1\/dilution;100 IU\/mL;10^10\/L;10^11\/L;10^12 IU\/L;10^12\/L;10^3 CFU;10^3 CFU\/g;10^3 CFU\/mL;10^3 DNA copies\/mL;10^3 RNA copies\/mL;10^3 copies\/mL;10^3 organisms;10^3 organisms\/g;10^3 organisms\/mL;10^3\/L;10^3\/hpf;10^3\/mm3;10^3\/mm4;10^3\/uL;10^4\/L;10^4\/hpf;10^5\/L;10^5\/hpf;10^6 CFU;10^6 CFU\/g;10^6 CFU\/mL;10^6 DNA copies\/mL;10^6 IU;10^6 IU\/mL;10^6 RNA copies\/mL;10^6 copies\/mL;10^6 organisms;10^6 organisms\/g;10^6 organisms\/mL;10^6 organisms\/mg;10^6\/L;10^6\/g;10^6\/hpf;10^6\/mm3;10^6\/uL;10^7\/L;10^8\/L;10^9 CFU;10^9 CFU\/g;10^9 CFU\/mL;10^9 organisms;10^9 organisms\/g;10^9 organisms\/mL;10^9 organisms\/mg;10^9\/L;AFU;AI;AMPULE;APL U\/mL;APPLICATION;ASC;AU;AU\/mL;AU\/min;AgU\/mL;Antibody Unit;BAG;BAR;BAU;BAU\/mL;BE\/mL;BEATS\/MIN;BISCUIT;BLOCKS;BOLUS;BOTTLE;BOX;BREATHS\/MIN;BU;BU\/mL;Bq;Bq\/L;Bq\/g;Bq\/kg;Bq\/mL;Bq\/mg;Bq\/uL;Bq\/ug;C;CAE;CAN;CAPFUL;CAPLET;CAPSULE;CARTRIDGE;CASE;CCID 50\/dose;CCID 50\/mL;CFU\/g;CFU\/mL;CIGAR;CIGARETTE;COAT;COI;CONTAINER;CUP;CYLINDER;Ci;Ci\/L;Ci\/g;Ci\/kg;Ci\/mL;Ci\/mg;Ci\/uL;Ci\/ug;Coulomb;Ct;DAYS;DAgU;DAgU\/mL;DIOPTER;DISK;DNA copies\/mL;DPM;DRUM;EID 50\/dose;EID 50\/mL;ELISA unit;ELISA unit\/dose;ELISA unit\/mL;EU;Enzyme U;F;FEU;FINGERTIP UNIT;Farad;Frames\/s;GBq;GBq\/g;GBq\/mg;GBq\/ug;GI\/L;GLASS;GPL U\/mL;Gauss;Gy;HAU\/100 uL;HEP;HOMEOPATHIC DILUTION;HOURS;HPF;Hb Fract.;Hemolytic Unit;Henry;Hounsfield Unit;Hz;IMPLANT;INDEX VALUE;INHALATION;IU;IU\/L;IU\/dL;IU\/g;IU\/kg;IU\/kg\/h;IU\/mL;IU\/mg;IU^4;IV;Immune Status Ratio (ISR);JAR;Joule;KALLIKREIN INHIBITOR UNIT;KIT;L;L\/L;L\/h;L\/h\/m2;L\/kg;L\/min;L\/min\/m2;L\/s;LB;LOZENGE;LPF;Log10 ELISA unit;Log10 ELISA unit\/dose;Log10 GEq\/mL;Log10 PFU\/mL;MBq;MBq\/uL;MESF;MFI;MHz;MONTHS;MPL U\/mL;Mile;NEBULE;NEEDLE GAUGE;NIU;Newton;PACK;PACKAGE;PACKET;PATCH;PELLET;PFU;PFU\/dose;PFU\/mL;PIPE;PIXEL;PIXELS\/cm;PIXELS\/in;PNU\/mL;POINT;POUCH;PRESSOR UNITS;PUFF;Pa;Pack Year;Perfusion unit;Perfusion unit*sec;QUANTITY SUFFICIENT;RATIO;RING;RNA copies\/mL;Rad;Roentgen;SACHET;SBE\/mL;SCO;SCOOPFUL;SFC;SFC\/10^6 PBMC;SPRAY;SQU\/mL;STANDARD DRINK\/day;STEPS;STRIP;SUPPOSITORY;SYRINGE;Shock Wave;Siemens;Signals\/cells;Sv;TABLET;TAMPON;TCID 50\/dose;TI\/L;TRACE;TROCHE;TUBE;Tbsp;Tesla;Torr;U;U.CARR;U\/L;U\/animal;U\/cL;U\/dL;U\/g;U\/g\/day;U\/g\/h;U\/g\/min;U\/kg;U\/kg\/day;U\/kg\/h;U\/kg\/min;U\/m2;U\/m2\/day;U\/m2\/h;U\/m2\/min;U\/mL;U\/mg;U\/mmol;V;V\/sec;VIAL;VIRTUAL PIXEL;WAFER;WEEKS;Watt;Weber;YEARS;ag;amol;amp;amu;anti-Xa IU;anti-Xa IU\/mL;atm;bel;cGy;cL;cal;cc;cd;cells\/mm3;cells\/uL;cg;cm;cm H2O;cm\/min;cm\/s;cm2;cmol;cmol\/L;copies\/mL;copies\/uL;cpm;cs;cy\/cm;cycle\/min;cycle\/sec;dB;dL;damol\/L;deg;dmol;dpm\/0.5 mL;dpm\/100mg;dpm\/mL;dpm\/mg;dram;dyn;eq;fL;fg;fmol;fmol\/L;fmol\/g;foz_br;foz_us;fraction of 1;ft;ft2;ft3;g;g\/24h;g\/L;g\/animal;g\/animal\/day;g\/animal\/wk;g\/cage;g\/cage\/day;g\/cage\/wk;g\/cm2;g\/dL;g\/day;g\/g;g\/g Creatinine;g\/g\/day;g\/kg;g\/kg\/day;g\/m2;g\/m2\/day;g\/mol;grain;gtt;hPa;in;in2;kAU\/L;kBq;kBq\/uL;kDa;kHz;kIU;kN\/cm2;kPa;kPa\/L\/sec;kU\/L;kUSP;kat;kcal;kg;kg\/L;kg\/cm;kg\/cm2;kg\/m2;km;km\/h;ks;lbf;lm;log EID 50\/dose;log10 CCID 50\/dose;log10 CFU\/g;log10 CFU\/mL;log10 IU\/mL;log10 TCID 50\/dose;log10 copies\/mL;lx;m;m\/sec;m\/sec2;m2;m3;mCi;mCi\/L;mCi\/kg;mEq;mEq\/L;mEq\/dL;mEq\/day;mEq\/g;mEq\/kg;mEq\/mL;mEq\/mmol;mEq\/uL;mEq\/ug;mIU\/L;mIU\/mL;mJoule\/cm2;mL;mL\/animal;mL\/animal\/day;mL\/animal\/wk;mL\/breath;mL\/cage;mL\/cage\/day;mL\/cage\/wk;mL\/cm;mL\/cm H2O;mL\/dL;mL\/day;mL\/g;mL\/g\/day;mL\/g\/h;mL\/g\/min;mL\/h;mL\/h\/uL of lysat;mL\/kg;mL\/kg\/day;mL\/kg\/h;mL\/kg\/min;mL\/m2;mL\/m2\/day;mL\/m2\/h;mL\/m2\/min;mL\/min;mL\/min\/1.73m2;mL\/min\/SSA;mL\/min\/mmHg;mL\/mmHg;mL\/mmHg\/min\/L;mL\/s;mL\/sec\/1.73m2;mOsm;mOsm\/kg;mPa;mU\/L;mU\/mL;mV;mV*min;mV2\/Hz;mcg\/dL;mg;mg%;mg\/24h;mg\/L;mg\/L FEU;mg\/animal;mg\/dL;mg\/day;mg\/g;mg\/g Creatinine;mg\/g\/day;mg\/g\/h;mg\/g\/min;mg\/h;mg\/kg;mg\/kg\/day;mg\/kg\/h;mg\/kg\/min;mg\/m2;mg\/m2\/day;mg\/m2\/h;mg\/m2\/min;mg\/mL\/min;mg\/min;mg\/mmol Creatinine;mg\/mol;min;mkat;mm;mm\/2h;mm\/h;mm\/min;mm\/sec;mm2;mm3;mmHg;mmHg\/L\/min;mmHg\/sec;mmol;mmol FA\/mL\/h;mmol\/L;mmol\/day;mmol\/g;mmol\/kg;mmol\/min\/kPa;mmol\/min\/kPa\/L;mmol\/mol;mmol^2\/L^2;mol;mol\/L;mol\/g;mol\/mL;mol\/mg;mol\/mol;mph;msec;nCi;nL;nU\/cL;nU\/mL;ng;ng\/L;ng\/dL;ng\/mL;nkat;nkat\/L;nm;nmol;nmol BCE\/L;nmol BCE\/mmol;nmol\/L;nmol\/dL;nmol\/hr\/mg protein;nmol\/mL\/min;nmol\/min\/mg protein;nsec;ohm;osm;oz;pL;per min;per sec;pg;pg\/L;pg\/dL;pg\/mL;pkat;pm;pmol;pmol\/L;pmol\/min\/uL of lysat;pmol\/punch\/hr;pools\/day;pools\/h;ppb;ppm;ppth;pptr;psec;psi;pt_br;pt_us;rpm;sABC;sMEC;scm;sec;titer;tsp;tuberculin unit;tuberculin unit\/mL;uCi;uCi\/L;uCi\/kg;uEq;uEq\/L;uIU\/mL;uL;uL\/mL;uOsM;uU\/mL;uV;uV*sec;ug;ug\/L;ug\/animal;ug\/dL;ug\/day;ug\/g\/day;ug\/g\/h;ug\/g\/min;ug\/h;ug\/kg;ug\/kg\/day;ug\/kg\/h;ug\/kg\/min;ug\/m2;ug\/m2\/day;ug\/m2\/h;ug\/m2\/min;ug\/mL;ug\/mL\/h;ug\/min;ugEq;ukat;ukat\/L;um;um2;umol;umol\/L;umol\/L\/min;umol\/L\/sec;umol\/day;umol\/mg\/min;umol\/min;usec;v\/v;yd;NONE;OTHER","class":"question","x":70.866,"y":127.671,"height":15.744,"width":89.556},{"pagenumber":38.0,"form":"Injection Site Swelling","OID":"FA_VAC_SWELLING","Domain":null,"order":34.0,"PreText":"Caused Study Termination","Question":null,"CDASH":"FADIS","CDASHTYPE":"SANOFI","SDTM":"","SDTMTYPE":"","codename":"NY_YN","codelist":"Y;N","class":"question","x":70.866,"y":108.671,"height":15.744,"width":128.532},{"pagenumber":38.0,"form":"Injection Site Swelling","OID":"FA_VAC_SWELLING","Domain":null,"order":35.0,"PreText":"Measurement Method at Day 00","Question":null,"CDASH":"FAMETH00","CDASHTYPE":"SANOFI","SDTM":"","SDTMTYPE":"","codename":null,"codelist":null,"class":"question","x":70.866,"y":73.671,"height":15.744,"width":155.172},{"pagenumber":39.0,"form":"Injection Site Swelling","OID":"FA_VAC_SWELLING","Domain":null,"order":2.0,"PreText":"Measurement Method at Day 01","Question":null,"CDASH":"FAMETH01","CDASHTYPE":"SANOFI","SDTM":"","SDTMTYPE":"","codename":null,"codelist":null,"class":"question","x":70.866,"y":666.671,"height":15.744,"width":155.172},{"pagenumber":39.0,"form":"Injection Site Swelling","OID":"FA_VAC_SWELLING","Domain":null,"order":3.0,"PreText":"Measurement Method at Day 02","Question":null,"CDASH":"FAMETH02","CDASHTYPE":"SANOFI","SDTM":"","SDTMTYPE":"","codename":null,"codelist":null,"class":"question","x":70.866,"y":649.671,"height":15.744,"width":155.172},{"pagenumber":39.0,"form":"Injection Site Swelling","OID":"FA_VAC_SWELLING","Domain":null,"order":4.0,"PreText":"Measurement Method at Day 03","Question":null,"CDASH":"FAMETH03","CDASHTYPE":"SANOFI","SDTM":"","SDTMTYPE":"","codename":null,"codelist":null,"class":"question","x":70.866,"y":632.671,"height":15.744,"width":155.172},{"pagenumber":39.0,"form":"Injection Site Swelling","OID":"FA_VAC_SWELLING","Domain":null,"order":5.0,"PreText":"Measurement Method at Day 04","Question":null,"CDASH":"FAMETH04","CDASHTYPE":"SANOFI","SDTM":"","SDTMTYPE":"","codename":null,"codelist":null,"class":"question","x":70.866,"y":615.671,"height":15.744,"width":155.172},{"pagenumber":39.0,"form":"Injection Site Swelling","OID":"FA_VAC_SWELLING","Domain":null,"order":6.0,"PreText":"Measurement Method at Day 05","Question":null,"CDASH":"FAMETH05","CDASHTYPE":"SANOFI","SDTM":"","SDTMTYPE":"","codename":null,"codelist":null,"class":"question","x":70.866,"y":598.671,"height":15.744,"width":155.172},{"pagenumber":39.0,"form":"Injection Site Swelling","OID":"FA_VAC_SWELLING","Domain":null,"order":7.0,"PreText":"Measurement Method at Day 06","Question":null,"CDASH":"FAMETH06","CDASHTYPE":"SANOFI","SDTM":"","SDTMTYPE":"","codename":null,"codelist":null,"class":"question","x":70.866,"y":581.671,"height":15.744,"width":155.172},{"pagenumber":39.0,"form":"Injection Site Swelling","OID":"FA_VAC_SWELLING","Domain":null,"order":8.0,"PreText":"Measurement Method at Day 07","Question":null,"CDASH":"FAMETH07","CDASHTYPE":"SANOFI","SDTM":"","SDTMTYPE":"","codename":null,"codelist":null,"class":"question","x":70.866,"y":564.671,"height":15.744,"width":155.172},{"pagenumber":39.0,"form":"Injection Site Swelling","OID":"FA_VAC_SWELLING","Domain":null,"order":9.0,"PreText":"Maximum Measurement Method","Question":null,"CDASH":"FAMETHMX","CDASHTYPE":"SANOFI","SDTM":"","SDTMTYPE":"","codename":null,"codelist":null,"class":"question","x":70.866,"y":547.671,"height":15.744,"width":158.508},{"pagenumber":40.0,"form":"Injection Site Induration","OID":"FA_VAC_INDURATION","Domain":"FA","order":2.0,"PreText":"Category of Reaction","Question":"What [is\/was] the [type\/category\/name] (of the [measurement\/test\/examination\/specimen\/sample])?","CDASH":"FACAT","CDASHTYPE":"IG","SDTM":"FACAT","SDTMTYPE":"IG","codename":"AECAT","codelist":"ADVERSE EVENT;ADVERSE EVENT OF SPECIAL INTEREST;ALLERGIC REACTION;ALT INCREASE;ASTHMA EXACERBATION EVENT;BLEEDING EVENT;BONE FRACTURE;DRUG ALLERGY EVENT;EPISTAXIS EVENT;FOREIGN BODY REACTION EVENT;HYPERCALCEMIA;HYPOGLYCEMIA;INCREASED CALCITONIN;INCREASED LIPASE\/AMYLASE;INFECTION EVENT;INJECTION SITE REACTION;METABOLIC ACIDOSIS EVENT;NEUROLOGIC DISORDER;OVERDOSE;PANCREATIC EVENT;PERIPHERAL NEUROPATHY EVENT;PREGNANCY;RENAL FAILURE;SERIOUS HYPOGLYCEMIA;SOLICITED;SUSPECTED OR CONFIRMED CEREBROVASCULAR EVENT;SUSPECTED OR CONFIRMED DIABETIC KETOACIDOSIS;SUSPECTED OR CONFIRMED HEART FAILURE;SUSPECTED OR CONFIRMED MYOCARDIAL INFARCTION \/ UNSTABLE ANGINA;UNSOLICITED;VASCULITIS EVENT;OTHER","class":"question","x":70.866,"y":666.671,"height":15.744,"width":102.528},{"pagenumber":40.0,"form":"Injection Site Induration","OID":"FA_VAC_INDURATION","Domain":"FA","order":3.0,"PreText":"Subcategory of Reaction","Question":"What [is\/was] the [type\/subcategory\/name] (of the [measurement\/test\/examination\/specimen\/sample])?","CDASH":"FASCAT","CDASHTYPE":"IG","SDTM":"FASCAT","SDTMTYPE":"IG","codename":"AESCAT_01","codelist":"ADMINISTRATION SITE;SYSTEMIC","class":"question","x":70.866,"y":77.671,"height":15.744,"width":118.524},{"pagenumber":41.0,"form":"Injection Site Induration","OID":"FA_VAC_INDURATION","Domain":"FA","order":3.0,"PreText":"Solicited Reaction Name","Question":"[Sponsored-defined phrase]","CDASH":"FAOBJ","CDASHTYPE":"IG","SDTM":"FAOBJ","SDTMTYPE":"IG","codename":null,"codelist":null,"class":"question","x":70.866,"y":647.671,"height":15.744,"width":119.808},{"pagenumber":41.0,"form":"Injection Site Induration","OID":"FA_VAC_INDURATION","Domain":null,"order":4.0,"PreText":"Did the subject report Injection Site Induration at least once between Day 00 and Day 07 after vaccination?","Question":null,"CDASH":"PROMPT_FA_01","CDASHTYPE":"SANOFI","SDTM":"","SDTMTYPE":"","codename":null,"codelist":null,"class":"question","x":70.866,"y":630.659,"height":15.948,"width":454.872},{"pagenumber":41.0,"form":"Injection Site Induration","OID":"FA_VAC_INDURATION","Domain":null,"order":6.0,"PreText":"Injection Site Induration","Question":null,"CDASH":"FAOCCUR","CDASHTYPE":"SANOFI","SDTM":"","SDTMTYPE":"","codename":"NY_YN","codelist":"Y;N","class":"question","x":70.866,"y":599.671,"height":15.744,"width":117.192},{"pagenumber":41.0,"form":"Injection Site Induration","OID":"FA_VAC_INDURATION","Domain":null,"order":9.0,"PreText":"If the answer is NO, then leave all the fields below blank.","Question":null,"CDASH":"PROMPT_FA_02","CDASHTYPE":"SANOFI","SDTM":"","SDTMTYPE":"","codename":null,"codelist":null,"class":"question","x":70.866,"y":564.659,"height":15.948,"width":274.68},{"pagenumber":41.0,"form":"Injection Site Induration","OID":"FA_VAC_INDURATION","Domain":null,"order":10.0,"PreText":"Action Taken (Check all that apply)","Question":null,"CDASH":"PROMPT_FAACN","CDASHTYPE":"SANOFI","SDTM":"","SDTMTYPE":"","codename":null,"codelist":null,"class":"question","x":70.866,"y":547.671,"height":15.948,"width":173.448},{"pagenumber":41.0,"form":"Injection Site Induration","OID":"FA_VAC_INDURATION","Domain":null,"order":11.0,"PreText":"None","Question":null,"CDASH":"FAACTN","CDASHTYPE":"SANOFI","SDTM":"","SDTMTYPE":"","codename":null,"codelist":null,"class":"question","x":80.866,"y":530.671,"height":15.744,"width":25.98},{"pagenumber":41.0,"form":"Injection Site Induration","OID":"FA_VAC_INDURATION","Domain":null,"order":12.0,"PreText":"Medication","Question":null,"CDASH":"FAACMED","CDASHTYPE":"SANOFI","SDTM":"","SDTMTYPE":"","codename":null,"codelist":null,"class":"question","x":80.866,"y":513.671,"height":15.744,"width":54.588},{"pagenumber":41.0,"form":"Injection Site Induration","OID":"FA_VAC_INDURATION","Domain":null,"order":13.0,"PreText":"Health Care Provider Contact","Question":null,"CDASH":"FAACTHC","CDASHTYPE":"SANOFI","SDTM":"","SDTMTYPE":"","codename":null,"codelist":null,"class":"question","x":80.866,"y":496.671,"height":15.744,"width":142.14},{"pagenumber":41.0,"form":"Injection Site Induration","OID":"FA_VAC_INDURATION","Domain":null,"order":14.0,"PreText":"Hospitalized","Question":null,"CDASH":"FAACTHO","CDASHTYPE":"SANOFI","SDTM":"","SDTMTYPE":"","codename":null,"codelist":null,"class":"question","x":80.866,"y":479.671,"height":15.744,"width":60.576},{"pagenumber":41.0,"form":"Injection Site Induration","OID":"FA_VAC_INDURATION","Domain":null,"order":15.0,"PreText":"Enter the Maximum daily Measurement from Day 00 to Day 07. If the Measurement is missing, enter 'UNK' for Unknown.","Question":null,"CDASH":"PROMPT_MEAS","CDASHTYPE":"SANOFI","SDTM":"","SDTMTYPE":"","codename":null,"codelist":null,"class":"question","x":70.866,"y":462.659,"height":15.948,"width":457.272},{"pagenumber":41.0,"form":"Injection Site Induration","OID":"FA_VAC_INDURATION","Domain":null,"order":16.0,"PreText":"Enter the Maximum Measurement considering the interval from Day 08 until the End Date. If the Measurement is missing, enter 'UNK' for Unknown.","Question":null,"CDASH":"PROMPT_MXMEAS","CDASHTYPE":"SANOFI","SDTM":"","SDTMTYPE":"","codename":null,"codelist":null,"class":"question","x":70.866,"y":448.659,"height":15.948,"width":126.348},{"pagenumber":41.0,"form":"Injection Site Induration","OID":"FA_VAC_INDURATION","Domain":null,"order":17.0,"PreText":"Measurement at Day 00","Question":null,"CDASH":"FAMEAS00","CDASHTYPE":"SANOFI","SDTM":"","SDTMTYPE":"","codename":null,"codelist":null,"class":"question","x":75.866,"y":431.671,"height":15.744,"width":114.864},{"pagenumber":41.0,"form":"Injection Site Induration","OID":"FA_VAC_INDURATION","Domain":null,"order":21.0,"PreText":"Measurement at Day 01","Question":null,"CDASH":"FAMEAS01","CDASHTYPE":"SANOFI","SDTM":"","SDTMTYPE":"","codename":null,"codelist":null,"class":"question","x":75.866,"y":341.671,"height":15.744,"width":114.864},{"pagenumber":41.0,"form":"Injection Site Induration","OID":"FA_VAC_INDURATION","Domain":null,"order":24.0,"PreText":"Measurement at Day 02","Question":null,"CDASH":"FAMEAS02","CDASHTYPE":"SANOFI","SDTM":"","SDTMTYPE":"","codename":null,"codelist":null,"class":"question","x":75.866,"y":251.671,"height":15.744,"width":114.864},{"pagenumber":41.0,"form":"Injection Site Induration","OID":"FA_VAC_INDURATION","Domain":null,"order":27.0,"PreText":"Measurement at Day 03","Question":null,"CDASH":"FAMEAS03","CDASHTYPE":"SANOFI","SDTM":"","SDTMTYPE":"","codename":null,"codelist":null,"class":"question","x":75.866,"y":161.671,"height":15.744,"width":114.864},{"pagenumber":41.0,"form":"Injection Site Induration","OID":"FA_VAC_INDURATION","Domain":null,"order":30.0,"PreText":"Measurement at Day 04","Question":null,"CDASH":"FAMEAS04","CDASHTYPE":"SANOFI","SDTM":"","SDTMTYPE":"","codename":null,"codelist":null,"class":"question","x":75.866,"y":71.671,"height":15.744,"width":114.864},{"pagenumber":42.0,"form":"Injection Site Induration","OID":"FA_VAC_INDURATION","Domain":null,"order":0.0,"PreText":"Discontinuation of study vaccination","Question":null,"CDASH":"FAACNC","CDASHTYPE":"SANOFI","SDTM":"","SDTMTYPE":"","codename":null,"codelist":null,"class":"unassigned","x":-100.0,"y":760.0,"height":15.0,"width":100.0},{"pagenumber":42.0,"form":"Injection Site Induration","OID":"FA_VAC_INDURATION","Domain":null,"order":2.0,"PreText":"If the reaction is too large to measure, check 'NM' for Non Measurable","Question":null,"CDASH":"FAMSNMMX","CDASHTYPE":"SANOFI","SDTM":"","SDTMTYPE":"","codename":null,"codelist":null,"class":"question","x":80.866,"y":666.671,"height":15.744,"width":280.008},{"pagenumber":42.0,"form":"Injection Site Induration","OID":"FA_VAC_INDURATION","Domain":null,"order":4.0,"PreText":"Measurement at Day 05","Question":null,"CDASH":"FAMEAS05","CDASHTYPE":"SANOFI","SDTM":"","SDTMTYPE":"","codename":null,"codelist":null,"class":"question","x":75.866,"y":614.671,"height":15.744,"width":114.864},{"pagenumber":42.0,"form":"Injection Site Induration","OID":"FA_VAC_INDURATION","Domain":null,"order":7.0,"PreText":"Measurement at Day 06","Question":null,"CDASH":"FAMEAS06","CDASHTYPE":"SANOFI","SDTM":"","SDTMTYPE":"","codename":null,"codelist":null,"class":"question","x":75.866,"y":524.671,"height":15.744,"width":114.864},{"pagenumber":42.0,"form":"Injection Site Induration","OID":"FA_VAC_INDURATION","Domain":null,"order":10.0,"PreText":"Measurement at Day 07","Question":null,"CDASH":"FAMEAS07","CDASHTYPE":"SANOFI","SDTM":"","SDTMTYPE":"","codename":null,"codelist":null,"class":"question","x":75.866,"y":434.671,"height":15.744,"width":114.864},{"pagenumber":42.0,"form":"Injection Site Induration","OID":"FA_VAC_INDURATION","Domain":null,"order":20.0,"PreText":"If a reaction is ongoing after Day 07, enter the Maximum Measurement available at the time of reporting.","Question":null,"CDASH":"PROMPT_ONGOING","CDASHTYPE":"SANOFI","SDTM":"","SDTMTYPE":"","codename":null,"codelist":null,"class":"question","x":70.866,"y":344.659,"height":15.948,"width":457.212},{"pagenumber":42.0,"form":"Injection Site Induration","OID":"FA_VAC_INDURATION","Domain":null,"order":22.0,"PreText":"Ongoing after Day 07?","Question":null,"CDASH":"FAONGO","CDASHTYPE":"SANOFI","SDTM":"","SDTMTYPE":"","codename":null,"codelist":null,"class":"question","x":80.866,"y":313.671,"height":15.744,"width":110.232},{"pagenumber":42.0,"form":"Injection Site Induration","OID":"FA_VAC_INDURATION","Domain":null,"order":23.0,"PreText":"When the End Date is obtained, ensure that the Maximum Measurement is still correct while considering the interval from Day 8 until the End Date.","Question":null,"CDASH":"PROMPT_FASEV1","CDASHTYPE":"SANOFI","SDTM":"","SDTMTYPE":"","codename":null,"codelist":null,"class":"question","x":70.866,"y":296.659,"height":15.948,"width":444.54},{"pagenumber":42.0,"form":"Injection Site Induration","OID":"FA_VAC_INDURATION","Domain":null,"order":25.0,"PreText":"End date","Question":null,"CDASH":"FAENDAT","CDASHTYPE":"SANOFI","SDTM":"","SDTMTYPE":"","codename":null,"codelist":null,"class":"question","x":80.866,"y":265.671,"height":15.744,"width":42.276},{"pagenumber":42.0,"form":"Injection Site Induration","OID":"FA_VAC_INDURATION","Domain":null,"order":28.0,"PreText":"Maximum Measurement after Day 07","Question":null,"CDASH":"FAMEASMX","CDASHTYPE":"SANOFI","SDTM":"","SDTMTYPE":"","codename":null,"codelist":null,"class":"question","x":75.866,"y":217.671,"height":15.744,"width":181.128},{"pagenumber":42.0,"form":"Injection Site Induration","OID":"FA_VAC_INDURATION","Domain":null,"order":33.0,"PreText":"Measurement Unit","Question":null,"CDASH":"FAMEASU","CDASHTYPE":"SANOFI","SDTM":"","SDTMTYPE":"","codename":"UNIT","codelist":"%;% INHIBITION;%(v\/v);%(w\/v);%(w\/w);%\/min;%cells\/area;\/100 HPFs;\/100 WBC;\/10^3 cells;\/HPF;\/L;\/LPF;\/VF;\/dL;\/day;\/h;\/kg;\/mL;\/mm3;\/month;\/nL;\/pL;\/uL;\/wk;\/year;1\/dilution;100 IU\/mL;10^10\/L;10^11\/L;10^12 IU\/L;10^12\/L;10^3 CFU;10^3 CFU\/g;10^3 CFU\/mL;10^3 DNA copies\/mL;10^3 RNA copies\/mL;10^3 copies\/mL;10^3 organisms;10^3 organisms\/g;10^3 organisms\/mL;10^3\/L;10^3\/hpf;10^3\/mm3;10^3\/mm4;10^3\/uL;10^4\/L;10^4\/hpf;10^5\/L;10^5\/hpf;10^6 CFU;10^6 CFU\/g;10^6 CFU\/mL;10^6 DNA copies\/mL;10^6 IU;10^6 IU\/mL;10^6 RNA copies\/mL;10^6 copies\/mL;10^6 organisms;10^6 organisms\/g;10^6 organisms\/mL;10^6 organisms\/mg;10^6\/L;10^6\/g;10^6\/hpf;10^6\/mm3;10^6\/uL;10^7\/L;10^8\/L;10^9 CFU;10^9 CFU\/g;10^9 CFU\/mL;10^9 organisms;10^9 organisms\/g;10^9 organisms\/mL;10^9 organisms\/mg;10^9\/L;AFU;AI;AMPULE;APL U\/mL;APPLICATION;ASC;AU;AU\/mL;AU\/min;AgU\/mL;Antibody Unit;BAG;BAR;BAU;BAU\/mL;BE\/mL;BEATS\/MIN;BISCUIT;BLOCKS;BOLUS;BOTTLE;BOX;BREATHS\/MIN;BU;BU\/mL;Bq;Bq\/L;Bq\/g;Bq\/kg;Bq\/mL;Bq\/mg;Bq\/uL;Bq\/ug;C;CAE;CAN;CAPFUL;CAPLET;CAPSULE;CARTRIDGE;CASE;CCID 50\/dose;CCID 50\/mL;CFU\/g;CFU\/mL;CIGAR;CIGARETTE;COAT;COI;CONTAINER;CUP;CYLINDER;Ci;Ci\/L;Ci\/g;Ci\/kg;Ci\/mL;Ci\/mg;Ci\/uL;Ci\/ug;Coulomb;Ct;DAYS;DAgU;DAgU\/mL;DIOPTER;DISK;DNA copies\/mL;DPM;DRUM;EID 50\/dose;EID 50\/mL;ELISA unit;ELISA unit\/dose;ELISA unit\/mL;EU;Enzyme U;F;FEU;FINGERTIP UNIT;Farad;Frames\/s;GBq;GBq\/g;GBq\/mg;GBq\/ug;GI\/L;GLASS;GPL U\/mL;Gauss;Gy;HAU\/100 uL;HEP;HOMEOPATHIC DILUTION;HOURS;HPF;Hb Fract.;Hemolytic Unit;Henry;Hounsfield Unit;Hz;IMPLANT;INDEX VALUE;INHALATION;IU;IU\/L;IU\/dL;IU\/g;IU\/kg;IU\/kg\/h;IU\/mL;IU\/mg;IU^4;IV;Immune Status Ratio (ISR);JAR;Joule;KALLIKREIN INHIBITOR UNIT;KIT;L;L\/L;L\/h;L\/h\/m2;L\/kg;L\/min;L\/min\/m2;L\/s;LB;LOZENGE;LPF;Log10 ELISA unit;Log10 ELISA unit\/dose;Log10 GEq\/mL;Log10 PFU\/mL;MBq;MBq\/uL;MESF;MFI;MHz;MONTHS;MPL U\/mL;Mile;NEBULE;NEEDLE GAUGE;NIU;Newton;PACK;PACKAGE;PACKET;PATCH;PELLET;PFU;PFU\/dose;PFU\/mL;PIPE;PIXEL;PIXELS\/cm;PIXELS\/in;PNU\/mL;POINT;POUCH;PRESSOR UNITS;PUFF;Pa;Pack Year;Perfusion unit;Perfusion unit*sec;QUANTITY SUFFICIENT;RATIO;RING;RNA copies\/mL;Rad;Roentgen;SACHET;SBE\/mL;SCO;SCOOPFUL;SFC;SFC\/10^6 PBMC;SPRAY;SQU\/mL;STANDARD DRINK\/day;STEPS;STRIP;SUPPOSITORY;SYRINGE;Shock Wave;Siemens;Signals\/cells;Sv;TABLET;TAMPON;TCID 50\/dose;TI\/L;TRACE;TROCHE;TUBE;Tbsp;Tesla;Torr;U;U.CARR;U\/L;U\/animal;U\/cL;U\/dL;U\/g;U\/g\/day;U\/g\/h;U\/g\/min;U\/kg;U\/kg\/day;U\/kg\/h;U\/kg\/min;U\/m2;U\/m2\/day;U\/m2\/h;U\/m2\/min;U\/mL;U\/mg;U\/mmol;V;V\/sec;VIAL;VIRTUAL PIXEL;WAFER;WEEKS;Watt;Weber;YEARS;ag;amol;amp;amu;anti-Xa IU;anti-Xa IU\/mL;atm;bel;cGy;cL;cal;cc;cd;cells\/mm3;cells\/uL;cg;cm;cm H2O;cm\/min;cm\/s;cm2;cmol;cmol\/L;copies\/mL;copies\/uL;cpm;cs;cy\/cm;cycle\/min;cycle\/sec;dB;dL;damol\/L;deg;dmol;dpm\/0.5 mL;dpm\/100mg;dpm\/mL;dpm\/mg;dram;dyn;eq;fL;fg;fmol;fmol\/L;fmol\/g;foz_br;foz_us;fraction of 1;ft;ft2;ft3;g;g\/24h;g\/L;g\/animal;g\/animal\/day;g\/animal\/wk;g\/cage;g\/cage\/day;g\/cage\/wk;g\/cm2;g\/dL;g\/day;g\/g;g\/g Creatinine;g\/g\/day;g\/kg;g\/kg\/day;g\/m2;g\/m2\/day;g\/mol;grain;gtt;hPa;in;in2;kAU\/L;kBq;kBq\/uL;kDa;kHz;kIU;kN\/cm2;kPa;kPa\/L\/sec;kU\/L;kUSP;kat;kcal;kg;kg\/L;kg\/cm;kg\/cm2;kg\/m2;km;km\/h;ks;lbf;lm;log EID 50\/dose;log10 CCID 50\/dose;log10 CFU\/g;log10 CFU\/mL;log10 IU\/mL;log10 TCID 50\/dose;log10 copies\/mL;lx;m;m\/sec;m\/sec2;m2;m3;mCi;mCi\/L;mCi\/kg;mEq;mEq\/L;mEq\/dL;mEq\/day;mEq\/g;mEq\/kg;mEq\/mL;mEq\/mmol;mEq\/uL;mEq\/ug;mIU\/L;mIU\/mL;mJoule\/cm2;mL;mL\/animal;mL\/animal\/day;mL\/animal\/wk;mL\/breath;mL\/cage;mL\/cage\/day;mL\/cage\/wk;mL\/cm;mL\/cm H2O;mL\/dL;mL\/day;mL\/g;mL\/g\/day;mL\/g\/h;mL\/g\/min;mL\/h;mL\/h\/uL of lysat;mL\/kg;mL\/kg\/day;mL\/kg\/h;mL\/kg\/min;mL\/m2;mL\/m2\/day;mL\/m2\/h;mL\/m2\/min;mL\/min;mL\/min\/1.73m2;mL\/min\/SSA;mL\/min\/mmHg;mL\/mmHg;mL\/mmHg\/min\/L;mL\/s;mL\/sec\/1.73m2;mOsm;mOsm\/kg;mPa;mU\/L;mU\/mL;mV;mV*min;mV2\/Hz;mcg\/dL;mg;mg%;mg\/24h;mg\/L;mg\/L FEU;mg\/animal;mg\/dL;mg\/day;mg\/g;mg\/g Creatinine;mg\/g\/day;mg\/g\/h;mg\/g\/min;mg\/h;mg\/kg;mg\/kg\/day;mg\/kg\/h;mg\/kg\/min;mg\/m2;mg\/m2\/day;mg\/m2\/h;mg\/m2\/min;mg\/mL\/min;mg\/min;mg\/mmol Creatinine;mg\/mol;min;mkat;mm;mm\/2h;mm\/h;mm\/min;mm\/sec;mm2;mm3;mmHg;mmHg\/L\/min;mmHg\/sec;mmol;mmol FA\/mL\/h;mmol\/L;mmol\/day;mmol\/g;mmol\/kg;mmol\/min\/kPa;mmol\/min\/kPa\/L;mmol\/mol;mmol^2\/L^2;mol;mol\/L;mol\/g;mol\/mL;mol\/mg;mol\/mol;mph;msec;nCi;nL;nU\/cL;nU\/mL;ng;ng\/L;ng\/dL;ng\/mL;nkat;nkat\/L;nm;nmol;nmol BCE\/L;nmol BCE\/mmol;nmol\/L;nmol\/dL;nmol\/hr\/mg protein;nmol\/mL\/min;nmol\/min\/mg protein;nsec;ohm;osm;oz;pL;per min;per sec;pg;pg\/L;pg\/dL;pg\/mL;pkat;pm;pmol;pmol\/L;pmol\/min\/uL of lysat;pmol\/punch\/hr;pools\/day;pools\/h;ppb;ppm;ppth;pptr;psec;psi;pt_br;pt_us;rpm;sABC;sMEC;scm;sec;titer;tsp;tuberculin unit;tuberculin unit\/mL;uCi;uCi\/L;uCi\/kg;uEq;uEq\/L;uIU\/mL;uL;uL\/mL;uOsM;uU\/mL;uV;uV*sec;ug;ug\/L;ug\/animal;ug\/dL;ug\/day;ug\/g\/day;ug\/g\/h;ug\/g\/min;ug\/h;ug\/kg;ug\/kg\/day;ug\/kg\/h;ug\/kg\/min;ug\/m2;ug\/m2\/day;ug\/m2\/h;ug\/m2\/min;ug\/mL;ug\/mL\/h;ug\/min;ugEq;ukat;ukat\/L;um;um2;umol;umol\/L;umol\/L\/min;umol\/L\/sec;umol\/day;umol\/mg\/min;umol\/min;usec;v\/v;yd;NONE;OTHER","class":"question","x":70.866,"y":127.671,"height":15.744,"width":89.556},{"pagenumber":42.0,"form":"Injection Site Induration","OID":"FA_VAC_INDURATION","Domain":null,"order":34.0,"PreText":"Caused Study Termination","Question":null,"CDASH":"FADIS","CDASHTYPE":"SANOFI","SDTM":"","SDTMTYPE":"","codename":"NY_YN","codelist":"Y;N","class":"question","x":70.866,"y":108.671,"height":15.744,"width":128.532},{"pagenumber":42.0,"form":"Injection Site Induration","OID":"FA_VAC_INDURATION","Domain":null,"order":35.0,"PreText":"Measurement Method at Day 00","Question":null,"CDASH":"FAMETH00","CDASHTYPE":"SANOFI","SDTM":"","SDTMTYPE":"","codename":null,"codelist":null,"class":"question","x":70.866,"y":73.671,"height":15.744,"width":155.172},{"pagenumber":43.0,"form":"Injection Site Induration","OID":"FA_VAC_INDURATION","Domain":null,"order":2.0,"PreText":"Measurement Method at Day 01","Question":null,"CDASH":"FAMETH01","CDASHTYPE":"SANOFI","SDTM":"","SDTMTYPE":"","codename":null,"codelist":null,"class":"question","x":70.866,"y":666.671,"height":15.744,"width":155.172},{"pagenumber":43.0,"form":"Injection Site Induration","OID":"FA_VAC_INDURATION","Domain":null,"order":3.0,"PreText":"Measurement Method at Day 02","Question":null,"CDASH":"FAMETH02","CDASHTYPE":"SANOFI","SDTM":"","SDTMTYPE":"","codename":null,"codelist":null,"class":"question","x":70.866,"y":649.671,"height":15.744,"width":155.172},{"pagenumber":43.0,"form":"Injection Site Induration","OID":"FA_VAC_INDURATION","Domain":null,"order":4.0,"PreText":"Measurement Method at Day 03","Question":null,"CDASH":"FAMETH03","CDASHTYPE":"SANOFI","SDTM":"","SDTMTYPE":"","codename":null,"codelist":null,"class":"question","x":70.866,"y":632.671,"height":15.744,"width":155.172},{"pagenumber":43.0,"form":"Injection Site Induration","OID":"FA_VAC_INDURATION","Domain":null,"order":5.0,"PreText":"Measurement Method at Day 04","Question":null,"CDASH":"FAMETH04","CDASHTYPE":"SANOFI","SDTM":"","SDTMTYPE":"","codename":null,"codelist":null,"class":"question","x":70.866,"y":615.671,"height":15.744,"width":155.172},{"pagenumber":43.0,"form":"Injection Site Induration","OID":"FA_VAC_INDURATION","Domain":null,"order":6.0,"PreText":"Measurement Method at Day 05","Question":null,"CDASH":"FAMETH05","CDASHTYPE":"SANOFI","SDTM":"","SDTMTYPE":"","codename":null,"codelist":null,"class":"question","x":70.866,"y":598.671,"height":15.744,"width":155.172},{"pagenumber":43.0,"form":"Injection Site Induration","OID":"FA_VAC_INDURATION","Domain":null,"order":7.0,"PreText":"Measurement Method at Day 06","Question":null,"CDASH":"FAMETH06","CDASHTYPE":"SANOFI","SDTM":"","SDTMTYPE":"","codename":null,"codelist":null,"class":"question","x":70.866,"y":581.671,"height":15.744,"width":155.172},{"pagenumber":43.0,"form":"Injection Site Induration","OID":"FA_VAC_INDURATION","Domain":null,"order":8.0,"PreText":"Measurement Method at Day 07","Question":null,"CDASH":"FAMETH07","CDASHTYPE":"SANOFI","SDTM":"","SDTMTYPE":"","codename":null,"codelist":null,"class":"question","x":70.866,"y":564.671,"height":15.744,"width":155.172},{"pagenumber":43.0,"form":"Injection Site Induration","OID":"FA_VAC_INDURATION","Domain":null,"order":9.0,"PreText":"Maximum Measurement Method","Question":null,"CDASH":"FAMETHMX","CDASHTYPE":"SANOFI","SDTM":"","SDTMTYPE":"","codename":null,"codelist":null,"class":"question","x":70.866,"y":547.671,"height":15.744,"width":158.508},{"pagenumber":44.0,"form":"Systemic Reaction Temperature","OID":"FA_VAC_TEMPERATURE","Domain":"FA","order":2.0,"PreText":"Category of Reaction","Question":"What [is\/was] the [type\/category\/name] (of the [measurement\/test\/examination\/specimen\/sample])?","CDASH":"FACAT","CDASHTYPE":"IG","SDTM":"FACAT","SDTMTYPE":"IG","codename":"AECAT","codelist":"ADVERSE EVENT;ADVERSE EVENT OF SPECIAL INTEREST;ALLERGIC REACTION;ALT INCREASE;ASTHMA EXACERBATION EVENT;BLEEDING EVENT;BONE FRACTURE;DRUG ALLERGY EVENT;EPISTAXIS EVENT;FOREIGN BODY REACTION EVENT;HYPERCALCEMIA;HYPOGLYCEMIA;INCREASED CALCITONIN;INCREASED LIPASE\/AMYLASE;INFECTION EVENT;INJECTION SITE REACTION;METABOLIC ACIDOSIS EVENT;NEUROLOGIC DISORDER;OVERDOSE;PANCREATIC EVENT;PERIPHERAL NEUROPATHY EVENT;PREGNANCY;RENAL FAILURE;SERIOUS HYPOGLYCEMIA;SOLICITED;SUSPECTED OR CONFIRMED CEREBROVASCULAR EVENT;SUSPECTED OR CONFIRMED DIABETIC KETOACIDOSIS;SUSPECTED OR CONFIRMED HEART FAILURE;SUSPECTED OR CONFIRMED MYOCARDIAL INFARCTION \/ UNSTABLE ANGINA;UNSOLICITED;VASCULITIS EVENT;OTHER","class":"question","x":70.866,"y":666.671,"height":15.744,"width":102.528},{"pagenumber":44.0,"form":"Systemic Reaction Temperature","OID":"FA_VAC_TEMPERATURE","Domain":"FA","order":3.0,"PreText":"Subcategory of Reaction","Question":"What [is\/was] the [type\/subcategory\/name] (of the [measurement\/test\/examination\/specimen\/sample])?","CDASH":"FASCAT","CDASHTYPE":"IG","SDTM":"FASCAT","SDTMTYPE":"IG","codename":"AESCAT_01","codelist":"ADMINISTRATION SITE;SYSTEMIC","class":"question","x":70.866,"y":77.671,"height":15.744,"width":118.524},{"pagenumber":45.0,"form":"Systemic Reaction Temperature","OID":"FA_VAC_TEMPERATURE","Domain":"FA","order":2.0,"PreText":"Solicited Reaction Name","Question":"[Sponsored-defined phrase]","CDASH":"FAOBJ","CDASHTYPE":"IG","SDTM":"FAOBJ","SDTMTYPE":"IG","codename":null,"codelist":null,"class":"question","x":70.866,"y":647.671,"height":15.744,"width":119.808},{"pagenumber":45.0,"form":"Systemic Reaction Temperature","OID":"FA_VAC_TEMPERATURE","Domain":null,"order":3.0,"PreText":"Enter the Maximum daily Temperature with one decimal value (e.g. 100.1 or 100.0) from Day 00 to Day 07. If the Temperature is missing, enter 'UNK' for Unknown and leave the Route blank.","Question":null,"CDASH":"PROMPT_FA_TEM01","CDASHTYPE":"SANOFI","SDTM":"","SDTMTYPE":"","codename":null,"codelist":null,"class":"question","x":70.866,"y":630.659,"height":15.948,"width":478.932},{"pagenumber":45.0,"form":"Systemic Reaction Temperature","OID":"FA_VAC_TEMPERATURE","Domain":null,"order":6.0,"PreText":"Temperature at Day 00","Question":null,"CDASH":"FAMEAS00","CDASHTYPE":"SANOFI","SDTM":"","SDTMTYPE":"","codename":null,"codelist":null,"class":"question","x":75.866,"y":585.671,"height":15.744,"width":110.844},{"pagenumber":45.0,"form":"Systemic Reaction Temperature","OID":"FA_VAC_TEMPERATURE","Domain":null,"order":7.0,"PreText":"Temperature Route at Day 00","Question":null,"CDASH":"FAMETH00","CDASHTYPE":"SANOFI","SDTM":"","SDTMTYPE":"","codename":"MEASMETH_02","codelist":"ORAL;AXILLARY;RECTAL","class":"question","x":80.866,"y":547.671,"height":15.744,"width":142.476},{"pagenumber":45.0,"form":"Systemic Reaction Temperature","OID":"FA_VAC_TEMPERATURE","Domain":null,"order":8.0,"PreText":"Temperature at Day 01","Question":null,"CDASH":"FAMEAS01","CDASHTYPE":"SANOFI","SDTM":"","SDTMTYPE":"","codename":null,"codelist":null,"class":"question","x":75.866,"y":496.671,"height":15.744,"width":110.844},{"pagenumber":45.0,"form":"Systemic Reaction Temperature","OID":"FA_VAC_TEMPERATURE","Domain":null,"order":9.0,"PreText":"Temperature Route at Day 01","Question":null,"CDASH":"FAMETH01","CDASHTYPE":"SANOFI","SDTM":"","SDTMTYPE":"","codename":"MEASMETH_02","codelist":"ORAL;AXILLARY;RECTAL","class":"question","x":80.866,"y":458.671,"height":15.744,"width":142.476},{"pagenumber":45.0,"form":"Systemic Reaction Temperature","OID":"FA_VAC_TEMPERATURE","Domain":null,"order":10.0,"PreText":"Temperature at Day 02","Question":null,"CDASH":"FAMEAS02","CDASHTYPE":"SANOFI","SDTM":"","SDTMTYPE":"","codename":null,"codelist":null,"class":"question","x":75.866,"y":407.671,"height":15.744,"width":110.844},{"pagenumber":45.0,"form":"Systemic Reaction Temperature","OID":"FA_VAC_TEMPERATURE","Domain":null,"order":11.0,"PreText":"Temperature Route at Day 02","Question":null,"CDASH":"FAMETH02","CDASHTYPE":"SANOFI","SDTM":"","SDTMTYPE":"","codename":"MEASMETH_02","codelist":"ORAL;AXILLARY;RECTAL","class":"question","x":80.866,"y":369.671,"height":15.744,"width":142.476},{"pagenumber":45.0,"form":"Systemic Reaction Temperature","OID":"FA_VAC_TEMPERATURE","Domain":null,"order":12.0,"PreText":"Temperature at Day 03","Question":null,"CDASH":"FAMEAS03","CDASHTYPE":"SANOFI","SDTM":"","SDTMTYPE":"","codename":null,"codelist":null,"class":"question","x":75.866,"y":318.671,"height":15.744,"width":110.844},{"pagenumber":45.0,"form":"Systemic Reaction Temperature","OID":"FA_VAC_TEMPERATURE","Domain":null,"order":13.0,"PreText":"Temperature Route at Day 03","Question":null,"CDASH":"FAMETH03","CDASHTYPE":"SANOFI","SDTM":"","SDTMTYPE":"","codename":"MEASMETH_02","codelist":"ORAL;AXILLARY;RECTAL","class":"question","x":80.866,"y":280.671,"height":15.744,"width":142.476},{"pagenumber":45.0,"form":"Systemic Reaction Temperature","OID":"FA_VAC_TEMPERATURE","Domain":null,"order":14.0,"PreText":"Temperature at Day 04","Question":null,"CDASH":"FAMEAS04","CDASHTYPE":"SANOFI","SDTM":"","SDTMTYPE":"","codename":null,"codelist":null,"class":"question","x":75.866,"y":229.671,"height":15.744,"width":110.844},{"pagenumber":45.0,"form":"Systemic Reaction Temperature","OID":"FA_VAC_TEMPERATURE","Domain":null,"order":15.0,"PreText":"Temperature Route at Day 04","Question":null,"CDASH":"FAMETH04","CDASHTYPE":"SANOFI","SDTM":"","SDTMTYPE":"","codename":"MEASMETH_02","codelist":"ORAL;AXILLARY;RECTAL","class":"question","x":80.866,"y":191.671,"height":15.744,"width":142.476},{"pagenumber":45.0,"form":"Systemic Reaction Temperature","OID":"FA_VAC_TEMPERATURE","Domain":null,"order":16.0,"PreText":"Temperature at Day 05","Question":null,"CDASH":"FAMEAS05","CDASHTYPE":"SANOFI","SDTM":"","SDTMTYPE":"","codename":null,"codelist":null,"class":"question","x":75.866,"y":140.671,"height":15.744,"width":110.844},{"pagenumber":45.0,"form":"Systemic Reaction Temperature","OID":"FA_VAC_TEMPERATURE","Domain":null,"order":17.0,"PreText":"Temperature Route at Day 05","Question":null,"CDASH":"FAMETH05","CDASHTYPE":"SANOFI","SDTM":"","SDTMTYPE":"","codename":"MEASMETH_02","codelist":"ORAL;AXILLARY;RECTAL","class":"question","x":80.866,"y":102.671,"height":15.744,"width":142.476},{"pagenumber":46.0,"form":"Systemic Reaction Temperature","OID":"FA_VAC_TEMPERATURE","Domain":null,"order":0.0,"PreText":"Discontinuation of study vaccination","Question":null,"CDASH":"FAACNC","CDASHTYPE":"SANOFI","SDTM":"","SDTMTYPE":"","codename":null,"codelist":null,"class":"unassigned","x":-100.0,"y":760.0,"height":15.0,"width":100.0},{"pagenumber":46.0,"form":"Systemic Reaction Temperature","OID":"FA_VAC_TEMPERATURE","Domain":null,"order":2.0,"PreText":"Temperature at Day 06","Question":null,"CDASH":"FAMEAS06","CDASHTYPE":"SANOFI","SDTM":"","SDTMTYPE":"","codename":null,"codelist":null,"class":"question","x":75.866,"y":666.671,"height":15.744,"width":110.844},{"pagenumber":46.0,"form":"Systemic Reaction Temperature","OID":"FA_VAC_TEMPERATURE","Domain":null,"order":3.0,"PreText":"Temperature Route at Day 06","Question":null,"CDASH":"FAMETH06","CDASHTYPE":"SANOFI","SDTM":"","SDTMTYPE":"","codename":"MEASMETH_02","codelist":"ORAL;AXILLARY;RECTAL","class":"question","x":80.866,"y":628.671,"height":15.744,"width":142.476},{"pagenumber":46.0,"form":"Systemic Reaction Temperature","OID":"FA_VAC_TEMPERATURE","Domain":null,"order":4.0,"PreText":"Temperature at Day 07","Question":null,"CDASH":"FAMEAS07","CDASHTYPE":"SANOFI","SDTM":"","SDTMTYPE":"","codename":null,"codelist":null,"class":"question","x":75.866,"y":577.671,"height":15.744,"width":110.844},{"pagenumber":46.0,"form":"Systemic Reaction Temperature","OID":"FA_VAC_TEMPERATURE","Domain":null,"order":5.0,"PreText":"Temperature Route at Day 07","Question":null,"CDASH":"FAMETH07","CDASHTYPE":"SANOFI","SDTM":"","SDTMTYPE":"","codename":"MEASMETH_02","codelist":"ORAL;AXILLARY;RECTAL","class":"question","x":80.866,"y":539.671,"height":15.744,"width":142.476},{"pagenumber":46.0,"form":"Systemic Reaction Temperature","OID":"FA_VAC_TEMPERATURE","Domain":null,"order":6.0,"PreText":"If at least one daily Measurement is >=100.4\u00b0F, check Presence of Fever =YES.","Question":null,"CDASH":"PROMPT_FEVER","CDASHTYPE":"SANOFI","SDTM":"","SDTMTYPE":"","codename":null,"codelist":null,"class":"question","x":70.866,"y":488.659,"height":15.948,"width":387.624},{"pagenumber":46.0,"form":"Systemic Reaction Temperature","OID":"FA_VAC_TEMPERATURE","Domain":null,"order":7.0,"PreText":"Presence of Fever?","Question":null,"CDASH":"FAOCCUR","CDASHTYPE":"SANOFI","SDTM":"","SDTMTYPE":"","codename":"NY_YN","codelist":"Y;N","class":"question","x":70.866,"y":471.671,"height":15.744,"width":91.212},{"pagenumber":46.0,"form":"Systemic Reaction Temperature","OID":"FA_VAC_TEMPERATURE","Domain":null,"order":18.0,"PreText":"If Presence of Fever is checked NO, then leave all the fields below blank.","Question":null,"CDASH":"PROMPT_FEVER2","CDASHTYPE":"SANOFI","SDTM":"","SDTMTYPE":"","codename":null,"codelist":null,"class":"question","x":70.866,"y":436.659,"height":15.948,"width":351.156},{"pagenumber":46.0,"form":"Systemic Reaction Temperature","OID":"FA_VAC_TEMPERATURE","Domain":null,"order":19.0,"PreText":"Action Taken (Check all that apply)","Question":null,"CDASH":"PROMPT_FAACN","CDASHTYPE":"SANOFI","SDTM":"","SDTMTYPE":"","codename":null,"codelist":null,"class":"question","x":70.866,"y":419.671,"height":15.948,"width":173.448},{"pagenumber":46.0,"form":"Systemic Reaction Temperature","OID":"FA_VAC_TEMPERATURE","Domain":null,"order":20.0,"PreText":"None","Question":null,"CDASH":"FAACTN","CDASHTYPE":"SANOFI","SDTM":"","SDTMTYPE":"","codename":null,"codelist":null,"class":"question","x":80.866,"y":402.671,"height":15.744,"width":25.98},{"pagenumber":46.0,"form":"Systemic Reaction Temperature","OID":"FA_VAC_TEMPERATURE","Domain":null,"order":21.0,"PreText":"Medication","Question":null,"CDASH":"FAACMED","CDASHTYPE":"SANOFI","SDTM":"","SDTMTYPE":"","codename":null,"codelist":null,"class":"question","x":80.866,"y":385.671,"height":15.744,"width":54.588},{"pagenumber":46.0,"form":"Systemic Reaction Temperature","OID":"FA_VAC_TEMPERATURE","Domain":null,"order":22.0,"PreText":"Health Care Provider Contact","Question":null,"CDASH":"FAACTHC","CDASHTYPE":"SANOFI","SDTM":"","SDTMTYPE":"","codename":null,"codelist":null,"class":"question","x":80.866,"y":368.671,"height":15.744,"width":142.14},{"pagenumber":46.0,"form":"Systemic Reaction Temperature","OID":"FA_VAC_TEMPERATURE","Domain":null,"order":23.0,"PreText":"Hospitalized","Question":null,"CDASH":"FAACTHO","CDASHTYPE":"SANOFI","SDTM":"","SDTMTYPE":"","codename":null,"codelist":null,"class":"question","x":80.866,"y":351.671,"height":15.744,"width":60.576},{"pagenumber":46.0,"form":"Systemic Reaction Temperature","OID":"FA_VAC_TEMPERATURE","Domain":null,"order":24.0,"PreText":"If ongoing after Day 07 is checked YES, enter the Maximum Temperature available at the time of reporting, Route and End Date. If NO, leave these questions blank.","Question":null,"CDASH":"PROMPT_ONGOFEV","CDASHTYPE":"SANOFI","SDTM":"","SDTMTYPE":"","codename":null,"codelist":null,"class":"question","x":70.866,"y":334.659,"height":15.948,"width":466.512},{"pagenumber":46.0,"form":"Systemic Reaction Temperature","OID":"FA_VAC_TEMPERATURE","Domain":null,"order":26.0,"PreText":"Ongoing after Day 07?","Question":null,"CDASH":"FAONGO","CDASHTYPE":"SANOFI","SDTM":"","SDTMTYPE":"","codename":null,"codelist":null,"class":"question","x":75.866,"y":303.671,"height":15.744,"width":110.232},{"pagenumber":46.0,"form":"Systemic Reaction Temperature","OID":"FA_VAC_TEMPERATURE","Domain":null,"order":27.0,"PreText":"Maximum Temperature after Day 07","Question":null,"CDASH":"FAMEASMX","CDASHTYPE":"SANOFI","SDTM":"","SDTMTYPE":"","codename":null,"codelist":null,"class":"question","x":75.866,"y":286.671,"height":15.744,"width":177.108},{"pagenumber":46.0,"form":"Systemic Reaction Temperature","OID":"FA_VAC_TEMPERATURE","Domain":null,"order":29.0,"PreText":"Maximum Temperature Route","Question":null,"CDASH":"FAMETHMX","CDASHTYPE":"SANOFI","SDTM":"","SDTMTYPE":"","codename":"MEASMETH_02","codelist":"ORAL;AXILLARY;RECTAL","class":"question","x":80.866,"y":248.671,"height":15.744,"width":145.812},{"pagenumber":46.0,"form":"Systemic Reaction Temperature","OID":"FA_VAC_TEMPERATURE","Domain":null,"order":33.0,"PreText":"When the End Date is obtained, ensure that the Maximum Temperature is still correct while considering the interval from Day 8 until the End Date.","Question":null,"CDASH":"PROMPT_FASEV1","CDASHTYPE":"SANOFI","SDTM":"","SDTMTYPE":"","codename":null,"codelist":null,"class":"question","x":70.866,"y":197.659,"height":15.948,"width":441.216},{"pagenumber":46.0,"form":"Systemic Reaction Temperature","OID":"FA_VAC_TEMPERATURE","Domain":null,"order":35.0,"PreText":"End date","Question":null,"CDASH":"FAENDAT","CDASHTYPE":"SANOFI","SDTM":"","SDTMTYPE":"","codename":null,"codelist":null,"class":"question","x":80.866,"y":166.671,"height":15.744,"width":42.276},{"pagenumber":46.0,"form":"Systemic Reaction Temperature","OID":"FA_VAC_TEMPERATURE","Domain":null,"order":36.0,"PreText":"Caused Study Termination","Question":null,"CDASH":"FADIS","CDASHTYPE":"SANOFI","SDTM":"","SDTMTYPE":"","codename":"NY_YN","codelist":"Y;N","class":"question","x":70.866,"y":149.671,"height":15.744,"width":128.532},{"pagenumber":46.0,"form":"Systemic Reaction Temperature","OID":"FA_VAC_TEMPERATURE","Domain":null,"order":37.0,"PreText":"Measurement Unit","Question":null,"CDASH":"FAMEASU","CDASHTYPE":"SANOFI","SDTM":"","SDTMTYPE":"","codename":"UNIT","codelist":"%;% INHIBITION;%(v\/v);%(w\/v);%(w\/w);%\/min;%cells\/area;\/100 HPFs;\/100 WBC;\/10^3 cells;\/HPF;\/L;\/LPF;\/VF;\/dL;\/day;\/h;\/kg;\/mL;\/mm3;\/month;\/nL;\/pL;\/uL;\/wk;\/year;1\/dilution;100 IU\/mL;10^10\/L;10^11\/L;10^12 IU\/L;10^12\/L;10^3 CFU;10^3 CFU\/g;10^3 CFU\/mL;10^3 DNA copies\/mL;10^3 RNA copies\/mL;10^3 copies\/mL;10^3 organisms;10^3 organisms\/g;10^3 organisms\/mL;10^3\/L;10^3\/hpf;10^3\/mm3;10^3\/mm4;10^3\/uL;10^4\/L;10^4\/hpf;10^5\/L;10^5\/hpf;10^6 CFU;10^6 CFU\/g;10^6 CFU\/mL;10^6 DNA copies\/mL;10^6 IU;10^6 IU\/mL;10^6 RNA copies\/mL;10^6 copies\/mL;10^6 organisms;10^6 organisms\/g;10^6 organisms\/mL;10^6 organisms\/mg;10^6\/L;10^6\/g;10^6\/hpf;10^6\/mm3;10^6\/uL;10^7\/L;10^8\/L;10^9 CFU;10^9 CFU\/g;10^9 CFU\/mL;10^9 organisms;10^9 organisms\/g;10^9 organisms\/mL;10^9 organisms\/mg;10^9\/L;AFU;AI;AMPULE;APL U\/mL;APPLICATION;ASC;AU;AU\/mL;AU\/min;AgU\/mL;Antibody Unit;BAG;BAR;BAU;BAU\/mL;BE\/mL;BEATS\/MIN;BISCUIT;BLOCKS;BOLUS;BOTTLE;BOX;BREATHS\/MIN;BU;BU\/mL;Bq;Bq\/L;Bq\/g;Bq\/kg;Bq\/mL;Bq\/mg;Bq\/uL;Bq\/ug;C;CAE;CAN;CAPFUL;CAPLET;CAPSULE;CARTRIDGE;CASE;CCID 50\/dose;CCID 50\/mL;CFU\/g;CFU\/mL;CIGAR;CIGARETTE;COAT;COI;CONTAINER;CUP;CYLINDER;Ci;Ci\/L;Ci\/g;Ci\/kg;Ci\/mL;Ci\/mg;Ci\/uL;Ci\/ug;Coulomb;Ct;DAYS;DAgU;DAgU\/mL;DIOPTER;DISK;DNA copies\/mL;DPM;DRUM;EID 50\/dose;EID 50\/mL;ELISA unit;ELISA unit\/dose;ELISA unit\/mL;EU;Enzyme U;F;FEU;FINGERTIP UNIT;Farad;Frames\/s;GBq;GBq\/g;GBq\/mg;GBq\/ug;GI\/L;GLASS;GPL U\/mL;Gauss;Gy;HAU\/100 uL;HEP;HOMEOPATHIC DILUTION;HOURS;HPF;Hb Fract.;Hemolytic Unit;Henry;Hounsfield Unit;Hz;IMPLANT;INDEX VALUE;INHALATION;IU;IU\/L;IU\/dL;IU\/g;IU\/kg;IU\/kg\/h;IU\/mL;IU\/mg;IU^4;IV;Immune Status Ratio (ISR);JAR;Joule;KALLIKREIN INHIBITOR UNIT;KIT;L;L\/L;L\/h;L\/h\/m2;L\/kg;L\/min;L\/min\/m2;L\/s;LB;LOZENGE;LPF;Log10 ELISA unit;Log10 ELISA unit\/dose;Log10 GEq\/mL;Log10 PFU\/mL;MBq;MBq\/uL;MESF;MFI;MHz;MONTHS;MPL U\/mL;Mile;NEBULE;NEEDLE GAUGE;NIU;Newton;PACK;PACKAGE;PACKET;PATCH;PELLET;PFU;PFU\/dose;PFU\/mL;PIPE;PIXEL;PIXELS\/cm;PIXELS\/in;PNU\/mL;POINT;POUCH;PRESSOR UNITS;PUFF;Pa;Pack Year;Perfusion unit;Perfusion unit*sec;QUANTITY SUFFICIENT;RATIO;RING;RNA copies\/mL;Rad;Roentgen;SACHET;SBE\/mL;SCO;SCOOPFUL;SFC;SFC\/10^6 PBMC;SPRAY;SQU\/mL;STANDARD DRINK\/day;STEPS;STRIP;SUPPOSITORY;SYRINGE;Shock Wave;Siemens;Signals\/cells;Sv;TABLET;TAMPON;TCID 50\/dose;TI\/L;TRACE;TROCHE;TUBE;Tbsp;Tesla;Torr;U;U.CARR;U\/L;U\/animal;U\/cL;U\/dL;U\/g;U\/g\/day;U\/g\/h;U\/g\/min;U\/kg;U\/kg\/day;U\/kg\/h;U\/kg\/min;U\/m2;U\/m2\/day;U\/m2\/h;U\/m2\/min;U\/mL;U\/mg;U\/mmol;V;V\/sec;VIAL;VIRTUAL PIXEL;WAFER;WEEKS;Watt;Weber;YEARS;ag;amol;amp;amu;anti-Xa IU;anti-Xa IU\/mL;atm;bel;cGy;cL;cal;cc;cd;cells\/mm3;cells\/uL;cg;cm;cm H2O;cm\/min;cm\/s;cm2;cmol;cmol\/L;copies\/mL;copies\/uL;cpm;cs;cy\/cm;cycle\/min;cycle\/sec;dB;dL;damol\/L;deg;dmol;dpm\/0.5 mL;dpm\/100mg;dpm\/mL;dpm\/mg;dram;dyn;eq;fL;fg;fmol;fmol\/L;fmol\/g;foz_br;foz_us;fraction of 1;ft;ft2;ft3;g;g\/24h;g\/L;g\/animal;g\/animal\/day;g\/animal\/wk;g\/cage;g\/cage\/day;g\/cage\/wk;g\/cm2;g\/dL;g\/day;g\/g;g\/g Creatinine;g\/g\/day;g\/kg;g\/kg\/day;g\/m2;g\/m2\/day;g\/mol;grain;gtt;hPa;in;in2;kAU\/L;kBq;kBq\/uL;kDa;kHz;kIU;kN\/cm2;kPa;kPa\/L\/sec;kU\/L;kUSP;kat;kcal;kg;kg\/L;kg\/cm;kg\/cm2;kg\/m2;km;km\/h;ks;lbf;lm;log EID 50\/dose;log10 CCID 50\/dose;log10 CFU\/g;log10 CFU\/mL;log10 IU\/mL;log10 TCID 50\/dose;log10 copies\/mL;lx;m;m\/sec;m\/sec2;m2;m3;mCi;mCi\/L;mCi\/kg;mEq;mEq\/L;mEq\/dL;mEq\/day;mEq\/g;mEq\/kg;mEq\/mL;mEq\/mmol;mEq\/uL;mEq\/ug;mIU\/L;mIU\/mL;mJoule\/cm2;mL;mL\/animal;mL\/animal\/day;mL\/animal\/wk;mL\/breath;mL\/cage;mL\/cage\/day;mL\/cage\/wk;mL\/cm;mL\/cm H2O;mL\/dL;mL\/day;mL\/g;mL\/g\/day;mL\/g\/h;mL\/g\/min;mL\/h;mL\/h\/uL of lysat;mL\/kg;mL\/kg\/day;mL\/kg\/h;mL\/kg\/min;mL\/m2;mL\/m2\/day;mL\/m2\/h;mL\/m2\/min;mL\/min;mL\/min\/1.73m2;mL\/min\/SSA;mL\/min\/mmHg;mL\/mmHg;mL\/mmHg\/min\/L;mL\/s;mL\/sec\/1.73m2;mOsm;mOsm\/kg;mPa;mU\/L;mU\/mL;mV;mV*min;mV2\/Hz;mcg\/dL;mg;mg%;mg\/24h;mg\/L;mg\/L FEU;mg\/animal;mg\/dL;mg\/day;mg\/g;mg\/g Creatinine;mg\/g\/day;mg\/g\/h;mg\/g\/min;mg\/h;mg\/kg;mg\/kg\/day;mg\/kg\/h;mg\/kg\/min;mg\/m2;mg\/m2\/day;mg\/m2\/h;mg\/m2\/min;mg\/mL\/min;mg\/min;mg\/mmol Creatinine;mg\/mol;min;mkat;mm;mm\/2h;mm\/h;mm\/min;mm\/sec;mm2;mm3;mmHg;mmHg\/L\/min;mmHg\/sec;mmol;mmol FA\/mL\/h;mmol\/L;mmol\/day;mmol\/g;mmol\/kg;mmol\/min\/kPa;mmol\/min\/kPa\/L;mmol\/mol;mmol^2\/L^2;mol;mol\/L;mol\/g;mol\/mL;mol\/mg;mol\/mol;mph;msec;nCi;nL;nU\/cL;nU\/mL;ng;ng\/L;ng\/dL;ng\/mL;nkat;nkat\/L;nm;nmol;nmol BCE\/L;nmol BCE\/mmol;nmol\/L;nmol\/dL;nmol\/hr\/mg protein;nmol\/mL\/min;nmol\/min\/mg protein;nsec;ohm;osm;oz;pL;per min;per sec;pg;pg\/L;pg\/dL;pg\/mL;pkat;pm;pmol;pmol\/L;pmol\/min\/uL of lysat;pmol\/punch\/hr;pools\/day;pools\/h;ppb;ppm;ppth;pptr;psec;psi;pt_br;pt_us;rpm;sABC;sMEC;scm;sec;titer;tsp;tuberculin unit;tuberculin unit\/mL;uCi;uCi\/L;uCi\/kg;uEq;uEq\/L;uIU\/mL;uL;uL\/mL;uOsM;uU\/mL;uV;uV*sec;ug;ug\/L;ug\/animal;ug\/dL;ug\/day;ug\/g\/day;ug\/g\/h;ug\/g\/min;ug\/h;ug\/kg;ug\/kg\/day;ug\/kg\/h;ug\/kg\/min;ug\/m2;ug\/m2\/day;ug\/m2\/h;ug\/m2\/min;ug\/mL;ug\/mL\/h;ug\/min;ugEq;ukat;ukat\/L;um;um2;umol;umol\/L;umol\/L\/min;umol\/L\/sec;umol\/day;umol\/mg\/min;umol\/min;usec;v\/v;yd;NONE;OTHER","class":"question","x":70.866,"y":114.671,"height":15.744,"width":89.556},{"pagenumber":47.0,"form":"Headache","OID":"FA_VAC_HEADACHE","Domain":"FA","order":2.0,"PreText":"Category of Reaction","Question":"What [is\/was] the [type\/category\/name] (of the [measurement\/test\/examination\/specimen\/sample])?","CDASH":"FACAT","CDASHTYPE":"IG","SDTM":"FACAT","SDTMTYPE":"IG","codename":"AECAT","codelist":"ADVERSE EVENT;ADVERSE EVENT OF SPECIAL INTEREST;ALLERGIC REACTION;ALT INCREASE;ASTHMA EXACERBATION EVENT;BLEEDING EVENT;BONE FRACTURE;DRUG ALLERGY EVENT;EPISTAXIS EVENT;FOREIGN BODY REACTION EVENT;HYPERCALCEMIA;HYPOGLYCEMIA;INCREASED CALCITONIN;INCREASED LIPASE\/AMYLASE;INFECTION EVENT;INJECTION SITE REACTION;METABOLIC ACIDOSIS EVENT;NEUROLOGIC DISORDER;OVERDOSE;PANCREATIC EVENT;PERIPHERAL NEUROPATHY EVENT;PREGNANCY;RENAL FAILURE;SERIOUS HYPOGLYCEMIA;SOLICITED;SUSPECTED OR CONFIRMED CEREBROVASCULAR EVENT;SUSPECTED OR CONFIRMED DIABETIC KETOACIDOSIS;SUSPECTED OR CONFIRMED HEART FAILURE;SUSPECTED OR CONFIRMED MYOCARDIAL INFARCTION \/ UNSTABLE ANGINA;UNSOLICITED;VASCULITIS EVENT;OTHER","class":"question","x":70.866,"y":666.671,"height":15.744,"width":102.528},{"pagenumber":47.0,"form":"Headache","OID":"FA_VAC_HEADACHE","Domain":"FA","order":3.0,"PreText":"Subcategory of Reaction","Question":"What [is\/was] the [type\/subcategory\/name] (of the [measurement\/test\/examination\/specimen\/sample])?","CDASH":"FASCAT","CDASHTYPE":"IG","SDTM":"FASCAT","SDTMTYPE":"IG","codename":"AESCAT_01","codelist":"ADMINISTRATION SITE;SYSTEMIC","class":"question","x":70.866,"y":77.671,"height":15.744,"width":118.524},{"pagenumber":48.0,"form":"Headache","OID":"FA_VAC_HEADACHE","Domain":"FA","order":2.0,"PreText":"Solicited Reaction Name","Question":"[Sponsored-defined phrase]","CDASH":"FAOBJ","CDASHTYPE":"IG","SDTM":"FAOBJ","SDTMTYPE":"IG","codename":null,"codelist":null,"class":"question","x":70.866,"y":647.671,"height":15.744,"width":119.808},{"pagenumber":48.0,"form":"Headache","OID":"FA_VAC_HEADACHE","Domain":null,"order":3.0,"PreText":"Did the subject report Headache at least once between Day 00 and Day 07 after vaccination?","Question":null,"CDASH":"PROMPT_FA_01","CDASHTYPE":"SANOFI","SDTM":"","SDTMTYPE":"","codename":null,"codelist":null,"class":"question","x":70.866,"y":630.659,"height":15.948,"width":450.528},{"pagenumber":48.0,"form":"Headache","OID":"FA_VAC_HEADACHE","Domain":null,"order":5.0,"PreText":"Headache","Question":null,"CDASH":"FAOCCUR","CDASHTYPE":"SANOFI","SDTM":"","SDTMTYPE":"","codename":"NY_YN","codelist":"Y;N","class":"question","x":70.866,"y":599.671,"height":15.744,"width":47.244},{"pagenumber":48.0,"form":"Headache","OID":"FA_VAC_HEADACHE","Domain":null,"order":8.0,"PreText":"If the answer is NO, then leave all the fields below blank.","Question":null,"CDASH":"PROMPT_FA_02","CDASHTYPE":"SANOFI","SDTM":"","SDTMTYPE":"","codename":null,"codelist":null,"class":"question","x":70.866,"y":564.659,"height":15.948,"width":274.68},{"pagenumber":48.0,"form":"Headache","OID":"FA_VAC_HEADACHE","Domain":null,"order":9.0,"PreText":"Action Taken (Check all that apply)","Question":null,"CDASH":"PROMPT_FAACN","CDASHTYPE":"SANOFI","SDTM":"","SDTMTYPE":"","codename":null,"codelist":null,"class":"question","x":70.866,"y":547.671,"height":15.948,"width":173.448},{"pagenumber":48.0,"form":"Headache","OID":"FA_VAC_HEADACHE","Domain":null,"order":10.0,"PreText":"None","Question":null,"CDASH":"FAACTN","CDASHTYPE":"SANOFI","SDTM":"","SDTMTYPE":"","codename":null,"codelist":null,"class":"question","x":80.866,"y":530.671,"height":15.744,"width":25.98},{"pagenumber":48.0,"form":"Headache","OID":"FA_VAC_HEADACHE","Domain":null,"order":11.0,"PreText":"Medication","Question":null,"CDASH":"FAACMED","CDASHTYPE":"SANOFI","SDTM":"","SDTMTYPE":"","codename":null,"codelist":null,"class":"question","x":80.866,"y":513.671,"height":15.744,"width":54.588},{"pagenumber":48.0,"form":"Headache","OID":"FA_VAC_HEADACHE","Domain":null,"order":12.0,"PreText":"Health Care Provider Contact","Question":null,"CDASH":"FAACTHC","CDASHTYPE":"SANOFI","SDTM":"","SDTMTYPE":"","codename":null,"codelist":null,"class":"question","x":80.866,"y":496.671,"height":15.744,"width":142.14},{"pagenumber":48.0,"form":"Headache","OID":"FA_VAC_HEADACHE","Domain":null,"order":13.0,"PreText":"Hospitalized","Question":null,"CDASH":"FAACTHO","CDASHTYPE":"SANOFI","SDTM":"","SDTMTYPE":"","codename":null,"codelist":null,"class":"question","x":80.866,"y":479.671,"height":15.744,"width":60.576},{"pagenumber":48.0,"form":"Headache","OID":"FA_VAC_HEADACHE","Domain":null,"order":14.0,"PreText":"Enter the Maximum daily Intensity from Day 00 to Day 07. If the Intensity is missing, select Unknown.","Question":null,"CDASH":"PROMPT_INT","CDASHTYPE":"SANOFI","SDTM":"","SDTMTYPE":"","codename":null,"codelist":null,"class":"question","x":70.866,"y":462.659,"height":15.948,"width":439.536},{"pagenumber":48.0,"form":"Headache","OID":"FA_VAC_HEADACHE","Domain":null,"order":15.0,"PreText":"Enter the Maximum Intensity considering the interval from Day 08 until the End Date. If the Intensity is missing, select Unknown.","Question":null,"CDASH":"PROMPT_MXINT","CDASHTYPE":"SANOFI","SDTM":"","SDTMTYPE":"","codename":null,"codelist":null,"class":"question","x":70.866,"y":448.659,"height":15.948,"width":48.972},{"pagenumber":48.0,"form":"Headache","OID":"FA_VAC_HEADACHE","Domain":null,"order":16.0,"PreText":"Intensity at Day 00","Question":null,"CDASH":"FAINT00","CDASHTYPE":"SANOFI","SDTM":"","SDTMTYPE":"","codename":"AESEVMD_02","codelist":"MILD;MODERATE;SEVERE;UNKNOWN;NONE","class":"question","x":80.866,"y":431.671,"height":15.744,"width":91.572},{"pagenumber":48.0,"form":"Headache","OID":"FA_VAC_HEADACHE","Domain":null,"order":40.0,"PreText":"Intensity at Day 01","Question":null,"CDASH":"FAINT01","CDASHTYPE":"SANOFI","SDTM":"","SDTMTYPE":"","codename":"AESEVMD_02","codelist":"MILD;MODERATE;SEVERE;UNKNOWN;NONE","class":"question","x":80.866,"y":348.671,"height":15.744,"width":91.572},{"pagenumber":48.0,"form":"Headache","OID":"FA_VAC_HEADACHE","Domain":null,"order":41.0,"PreText":"Intensity at Day 02","Question":null,"CDASH":"FAINT02","CDASHTYPE":"SANOFI","SDTM":"","SDTMTYPE":"","codename":"AESEVMD_02","codelist":"MILD;MODERATE;SEVERE;UNKNOWN;NONE","class":"question","x":80.866,"y":265.671,"height":15.744,"width":91.572},{"pagenumber":48.0,"form":"Headache","OID":"FA_VAC_HEADACHE","Domain":null,"order":42.0,"PreText":"Intensity at Day 03","Question":null,"CDASH":"FAINT03","CDASHTYPE":"SANOFI","SDTM":"","SDTMTYPE":"","codename":"AESEVMD_02","codelist":"MILD;MODERATE;SEVERE;UNKNOWN;NONE","class":"question","x":80.866,"y":182.671,"height":15.744,"width":91.572},{"pagenumber":48.0,"form":"Headache","OID":"FA_VAC_HEADACHE","Domain":null,"order":43.0,"PreText":"Intensity at Day 04","Question":null,"CDASH":"FAINT04","CDASHTYPE":"SANOFI","SDTM":"","SDTMTYPE":"","codename":"AESEVMD_02","codelist":"MILD;MODERATE;SEVERE;UNKNOWN;NONE","class":"question","x":80.866,"y":99.671,"height":15.744,"width":91.572},{"pagenumber":49.0,"form":"Headache","OID":"FA_VAC_HEADACHE","Domain":null,"order":0.0,"PreText":"Discontinuation of study vaccination","Question":null,"CDASH":"FAACNC","CDASHTYPE":"SANOFI","SDTM":"","SDTMTYPE":"","codename":null,"codelist":null,"class":"unassigned","x":-100.0,"y":760.0,"height":15.0,"width":100.0},{"pagenumber":49.0,"form":"Headache","OID":"FA_VAC_HEADACHE","Domain":null,"order":2.0,"PreText":"Intensity at Day 05","Question":null,"CDASH":"FAINT05","CDASHTYPE":"SANOFI","SDTM":"","SDTMTYPE":"","codename":"AESEVMD_02","codelist":"MILD;MODERATE;SEVERE;UNKNOWN;NONE","class":"question","x":80.866,"y":631.671,"height":15.744,"width":91.572},{"pagenumber":49.0,"form":"Headache","OID":"FA_VAC_HEADACHE","Domain":null,"order":3.0,"PreText":"Intensity at Day 06","Question":null,"CDASH":"FAINT06","CDASHTYPE":"SANOFI","SDTM":"","SDTMTYPE":"","codename":"AESEVMD_02","codelist":"MILD;MODERATE;SEVERE;UNKNOWN;NONE","class":"question","x":80.866,"y":548.671,"height":15.744,"width":91.572},{"pagenumber":49.0,"form":"Headache","OID":"FA_VAC_HEADACHE","Domain":null,"order":4.0,"PreText":"Intensity at Day 07","Question":null,"CDASH":"FAINT07","CDASHTYPE":"SANOFI","SDTM":"","SDTMTYPE":"","codename":"AESEVMD_02","codelist":"MILD;MODERATE;SEVERE;UNKNOWN;NONE","class":"question","x":80.866,"y":465.671,"height":15.744,"width":91.572},{"pagenumber":49.0,"form":"Headache","OID":"FA_VAC_HEADACHE","Domain":null,"order":22.0,"PreText":"If a reaction is ongoing after Day 07, enter the Maximum Intensity available at the time of reporting.","Question":null,"CDASH":"PROMPT_ONGOING","CDASHTYPE":"SANOFI","SDTM":"","SDTMTYPE":"","codename":null,"codelist":null,"class":"question","x":70.866,"y":382.659,"height":15.948,"width":433.212},{"pagenumber":49.0,"form":"Headache","OID":"FA_VAC_HEADACHE","Domain":null,"order":24.0,"PreText":"Ongoing after Day 07?","Question":null,"CDASH":"FAONGO","CDASHTYPE":"SANOFI","SDTM":"","SDTMTYPE":"","codename":null,"codelist":null,"class":"question","x":80.866,"y":351.671,"height":15.744,"width":110.232},{"pagenumber":49.0,"form":"Headache","OID":"FA_VAC_HEADACHE","Domain":null,"order":25.0,"PreText":"When the End Date is obtained, ensure that the Maximum Intensity is still correct while considering the interval from Day 8 until the End Date.","Question":null,"CDASH":"PROMPT_FASEV1","CDASHTYPE":"SANOFI","SDTM":"","SDTMTYPE":"","codename":null,"codelist":null,"class":"question","x":70.866,"y":334.659,"height":15.948,"width":480.156},{"pagenumber":49.0,"form":"Headache","OID":"FA_VAC_HEADACHE","Domain":null,"order":27.0,"PreText":"End date","Question":null,"CDASH":"FAENDAT","CDASHTYPE":"SANOFI","SDTM":"","SDTMTYPE":"","codename":null,"codelist":null,"class":"question","x":80.866,"y":303.671,"height":15.744,"width":42.276},{"pagenumber":49.0,"form":"Headache","OID":"FA_VAC_HEADACHE","Domain":null,"order":30.0,"PreText":"Maximum Intensity after Day 07","Question":null,"CDASH":"FAINTMX","CDASHTYPE":"SANOFI","SDTM":"","SDTMTYPE":"","codename":"AESEVMD_01","codelist":"MILD;MODERATE;SEVERE;UNKNOWN","class":"question","x":80.866,"y":255.671,"height":15.744,"width":157.836},{"pagenumber":49.0,"form":"Headache","OID":"FA_VAC_HEADACHE","Domain":null,"order":31.0,"PreText":"Caused Study Termination","Question":null,"CDASH":"FADIS","CDASHTYPE":"SANOFI","SDTM":"","SDTMTYPE":"","codename":"NY_YN","codelist":"Y;N","class":"question","x":70.866,"y":188.671,"height":15.744,"width":128.532},{"pagenumber":49.0,"form":"Headache","OID":"FA_VAC_HEADACHE","Domain":null,"order":32.0,"PreText":"Intensity Method at Day 00","Question":null,"CDASH":"FAMETH00","CDASHTYPE":"SANOFI","SDTM":"","SDTMTYPE":"","codename":null,"codelist":null,"class":"question","x":70.866,"y":153.671,"height":15.744,"width":131.88},{"pagenumber":49.0,"form":"Headache","OID":"FA_VAC_HEADACHE","Domain":null,"order":33.0,"PreText":"Intensity Method at Day 01","Question":null,"CDASH":"FAMETH01","CDASHTYPE":"SANOFI","SDTM":"","SDTMTYPE":"","codename":null,"codelist":null,"class":"question","x":70.866,"y":136.671,"height":15.744,"width":131.88},{"pagenumber":49.0,"form":"Headache","OID":"FA_VAC_HEADACHE","Domain":null,"order":34.0,"PreText":"Intensity Method at Day 02","Question":null,"CDASH":"FAMETH02","CDASHTYPE":"SANOFI","SDTM":"","SDTMTYPE":"","codename":null,"codelist":null,"class":"question","x":70.866,"y":119.671,"height":15.744,"width":131.88},{"pagenumber":49.0,"form":"Headache","OID":"FA_VAC_HEADACHE","Domain":null,"order":35.0,"PreText":"Intensity Method at Day 03","Question":null,"CDASH":"FAMETH03","CDASHTYPE":"SANOFI","SDTM":"","SDTMTYPE":"","codename":null,"codelist":null,"class":"question","x":70.866,"y":102.671,"height":15.744,"width":131.88},{"pagenumber":49.0,"form":"Headache","OID":"FA_VAC_HEADACHE","Domain":null,"order":36.0,"PreText":"Intensity Method at Day 04","Question":null,"CDASH":"FAMETH04","CDASHTYPE":"SANOFI","SDTM":"","SDTMTYPE":"","codename":null,"codelist":null,"class":"question","x":70.866,"y":85.671,"height":15.744,"width":131.88},{"pagenumber":49.0,"form":"Headache","OID":"FA_VAC_HEADACHE","Domain":null,"order":37.0,"PreText":"Intensity Method at Day 05","Question":null,"CDASH":"FAMETH05","CDASHTYPE":"SANOFI","SDTM":"","SDTMTYPE":"","codename":null,"codelist":null,"class":"question","x":70.866,"y":68.671,"height":15.744,"width":131.88},{"pagenumber":50.0,"form":"Headache","OID":"FA_VAC_HEADACHE","Domain":null,"order":2.0,"PreText":"Intensity Method at Day 06","Question":null,"CDASH":"FAMETH06","CDASHTYPE":"SANOFI","SDTM":"","SDTMTYPE":"","codename":null,"codelist":null,"class":"question","x":70.866,"y":666.671,"height":15.744,"width":131.88},{"pagenumber":50.0,"form":"Headache","OID":"FA_VAC_HEADACHE","Domain":null,"order":3.0,"PreText":"Intensity Method at Day 07","Question":null,"CDASH":"FAMETH07","CDASHTYPE":"SANOFI","SDTM":"","SDTMTYPE":"","codename":null,"codelist":null,"class":"question","x":70.866,"y":649.671,"height":15.744,"width":131.88},{"pagenumber":50.0,"form":"Headache","OID":"FA_VAC_HEADACHE","Domain":null,"order":4.0,"PreText":"Maximum Intensity Method","Question":null,"CDASH":"FAMETHMX","CDASHTYPE":"SANOFI","SDTM":"","SDTMTYPE":"","codename":null,"codelist":null,"class":"question","x":70.866,"y":632.671,"height":15.744,"width":135.216},{"pagenumber":51.0,"form":"Malaise","OID":"FA_VAC_MALAISE","Domain":"FA","order":2.0,"PreText":"Category of Reaction","Question":"What [is\/was] the [type\/category\/name] (of the [measurement\/test\/examination\/specimen\/sample])?","CDASH":"FACAT","CDASHTYPE":"IG","SDTM":"FACAT","SDTMTYPE":"IG","codename":"AECAT","codelist":"ADVERSE EVENT;ADVERSE EVENT OF SPECIAL INTEREST;ALLERGIC REACTION;ALT INCREASE;ASTHMA EXACERBATION EVENT;BLEEDING EVENT;BONE FRACTURE;DRUG ALLERGY EVENT;EPISTAXIS EVENT;FOREIGN BODY REACTION EVENT;HYPERCALCEMIA;HYPOGLYCEMIA;INCREASED CALCITONIN;INCREASED LIPASE\/AMYLASE;INFECTION EVENT;INJECTION SITE REACTION;METABOLIC ACIDOSIS EVENT;NEUROLOGIC DISORDER;OVERDOSE;PANCREATIC EVENT;PERIPHERAL NEUROPATHY EVENT;PREGNANCY;RENAL FAILURE;SERIOUS HYPOGLYCEMIA;SOLICITED;SUSPECTED OR CONFIRMED CEREBROVASCULAR EVENT;SUSPECTED OR CONFIRMED DIABETIC KETOACIDOSIS;SUSPECTED OR CONFIRMED HEART FAILURE;SUSPECTED OR CONFIRMED MYOCARDIAL INFARCTION \/ UNSTABLE ANGINA;UNSOLICITED;VASCULITIS EVENT;OTHER","class":"question","x":70.866,"y":666.671,"height":15.744,"width":102.528},{"pagenumber":51.0,"form":"Malaise","OID":"FA_VAC_MALAISE","Domain":"FA","order":3.0,"PreText":"Subcategory of Reaction","Question":"What [is\/was] the [type\/subcategory\/name] (of the [measurement\/test\/examination\/specimen\/sample])?","CDASH":"FASCAT","CDASHTYPE":"IG","SDTM":"FASCAT","SDTMTYPE":"IG","codename":"AESCAT_01","codelist":"ADMINISTRATION SITE;SYSTEMIC","class":"question","x":70.866,"y":77.671,"height":15.744,"width":118.524},{"pagenumber":52.0,"form":"Malaise","OID":"FA_VAC_MALAISE","Domain":"FA","order":2.0,"PreText":"Solicited Reaction Name","Question":"[Sponsored-defined phrase]","CDASH":"FAOBJ","CDASHTYPE":"IG","SDTM":"FAOBJ","SDTMTYPE":"IG","codename":null,"codelist":null,"class":"question","x":70.866,"y":647.671,"height":15.744,"width":119.808},{"pagenumber":52.0,"form":"Malaise","OID":"FA_VAC_MALAISE","Domain":null,"order":3.0,"PreText":"Did the subject report Malaise at least once between Day 00 and Day 07 after vaccination?","Question":null,"CDASH":"PROMPT_FA_01","CDASHTYPE":"SANOFI","SDTM":"","SDTMTYPE":"","codename":null,"codelist":null,"class":"question","x":70.866,"y":630.659,"height":15.948,"width":440.544},{"pagenumber":52.0,"form":"Malaise","OID":"FA_VAC_MALAISE","Domain":null,"order":4.0,"PreText":"Malaise","Question":null,"CDASH":"FAOCCUR","CDASHTYPE":"SANOFI","SDTM":"","SDTMTYPE":"","codename":"NY_YN","codelist":"Y;N","class":"question","x":70.866,"y":613.671,"height":15.744,"width":37.932},{"pagenumber":52.0,"form":"Malaise","OID":"FA_VAC_MALAISE","Domain":null,"order":8.0,"PreText":"If the answer is NO, then leave all the fields below blank.","Question":null,"CDASH":"PROMPT_FA_02","CDASHTYPE":"SANOFI","SDTM":"","SDTMTYPE":"","codename":null,"codelist":null,"class":"question","x":70.866,"y":578.659,"height":15.948,"width":274.68},{"pagenumber":52.0,"form":"Malaise","OID":"FA_VAC_MALAISE","Domain":null,"order":9.0,"PreText":"Action Taken (Check all that apply)","Question":null,"CDASH":"PROMPT_FAACN","CDASHTYPE":"SANOFI","SDTM":"","SDTMTYPE":"","codename":null,"codelist":null,"class":"question","x":70.866,"y":561.671,"height":15.948,"width":173.448},{"pagenumber":52.0,"form":"Malaise","OID":"FA_VAC_MALAISE","Domain":null,"order":10.0,"PreText":"None","Question":null,"CDASH":"FAACTN","CDASHTYPE":"SANOFI","SDTM":"","SDTMTYPE":"","codename":null,"codelist":null,"class":"question","x":80.866,"y":544.671,"height":15.744,"width":25.98},{"pagenumber":52.0,"form":"Malaise","OID":"FA_VAC_MALAISE","Domain":null,"order":11.0,"PreText":"Medication","Question":null,"CDASH":"FAACMED","CDASHTYPE":"SANOFI","SDTM":"","SDTMTYPE":"","codename":null,"codelist":null,"class":"question","x":80.866,"y":527.671,"height":15.744,"width":54.588},{"pagenumber":52.0,"form":"Malaise","OID":"FA_VAC_MALAISE","Domain":null,"order":12.0,"PreText":"Health Care Provider Contact","Question":null,"CDASH":"FAACTHC","CDASHTYPE":"SANOFI","SDTM":"","SDTMTYPE":"","codename":null,"codelist":null,"class":"question","x":80.866,"y":510.671,"height":15.744,"width":142.14},{"pagenumber":52.0,"form":"Malaise","OID":"FA_VAC_MALAISE","Domain":null,"order":13.0,"PreText":"Hospitalized","Question":null,"CDASH":"FAACTHO","CDASHTYPE":"SANOFI","SDTM":"","SDTMTYPE":"","codename":null,"codelist":null,"class":"question","x":80.866,"y":493.671,"height":15.744,"width":60.576},{"pagenumber":52.0,"form":"Malaise","OID":"FA_VAC_MALAISE","Domain":null,"order":14.0,"PreText":"Enter the Maximum daily Intensity from Day 00 to Day 07. If the Intensity is missing, select Unknown.","Question":null,"CDASH":"PROMPT_INT","CDASHTYPE":"SANOFI","SDTM":"","SDTMTYPE":"","codename":null,"codelist":null,"class":"question","x":70.866,"y":476.659,"height":15.948,"width":439.536},{"pagenumber":52.0,"form":"Malaise","OID":"FA_VAC_MALAISE","Domain":null,"order":15.0,"PreText":"Enter the Maximum Intensity considering the interval from Day 08 until the End Date. If the Intensity is missing, select Unknown.","Question":null,"CDASH":"PROMPT_MXINT","CDASHTYPE":"