{"VERSION": "1.0.0", "IGSDTM": [{"SDTMDOM": ["DM"], "SDTMVAR": "ACTARM"}, {"SDTMDOM": ["DM"], "SDTMVAR": "ACTARMCD"}, {"SDTMDOM": ["DM"], "SDTMVAR": "ACTARMUD"}, {"SDTMDOM": ["DM"], "SDTMVAR": "AGE"}, {"SDTMDOM": ["DM"], "SDTMVAR": "AGETXT"}, {"SDTMDOM": ["DM"], "SDTMVAR": "AGEU"}, {"SDTMDOM": ["RELREC", "SUPPQUAL", "POOLDEF", "APRELSUB"], "SDTMVAR": "APID"}, {"SDTMDOM": ["DM", "TA", "TV"], "SDTMVAR": "ARM"}, {"SDTMDOM": ["DM", "TA", "TV"], "SDTMVAR": "ARMCD"}, {"SDTMDOM": ["DM"], "SDTMVAR": "ARMNRS"}, {"SDTMDOM": ["DM"], "SDTMVAR": "BRTHDTC"}, {"SDTMDOM": ["CO"], "SDTMVAR": "CODTC"}, {"SDTMDOM": ["CO"], "SDTMVAR": "CODY"}, {"SDTMDOM": ["CO"], "SDTMVAR": "COEVAL"}, {"SDTMDOM": ["CO"], "SDTMVAR": "COEVALID"}, {"SDTMDOM": ["CO"], "SDTMVAR": "COREF"}, {"SDTMDOM": ["CO"], "SDTMVAR": "COSEQ"}, {"SDTMDOM": ["DM"], "SDTMVAR": "COUNTRY"}, {"SDTMDOM": ["CO"], "SDTMVAR": "COVAL"}, {"SDTMDOM": ["DI"], "SDTMVAR": "DIPARM"}, {"SDTMDOM": ["DI"], "SDTMVAR": "DIPARMCD"}, {"SDTMDOM": ["DI"], "SDTMVAR": "DISEQ"}, {"SDTMDOM": ["DI"], "SDTMVAR": "DIVAL"}, {"SDTMDOM": ["DM"], "SDTMVAR": "DMDTC"}, {"SDTMDOM": ["DM"], "SDTMVAR": "DMDY"}, {"SDTMDOM": ["DM", "CO", "SE", "SV", "SM", "SJ", "TE", "TA", "TV", "TX", "TT", "TP", "TI", "TS", "TD", "TM", "DR", "DI", "OI"], "SDTMVAR": "DOMAIN"}, {"SDTMDOM": ["DM"], "SDTMVAR": "DTHDTC"}, {"SDTMDOM": ["DM"], "SDTMVAR": "DTHFL"}, {"SDTMDOM": ["SE", "TE", "TA"], "SDTMVAR": "ELEMENT"}, {"SDTMDOM": ["SE", "TA"], "SDTMVAR": "EPOCH"}, {"SDTMDOM": ["SE", "TE", "TA"], "SDTMVAR": "ETCD"}, {"SDTMDOM": ["DM"], "SDTMVAR": "ETHNIC"}, {"SDTMDOM": ["CO", "RELREC", "SUPPQUAL"], "SDTMVAR": "IDVAR"}, {"SDTMDOM": ["CO", "RELREC", "SUPPQUAL"], "SDTMVAR": "IDVARVAL"}, {"SDTMDOM": ["TI"], "SDTMVAR": "IECAT"}, {"SDTMDOM": ["TI"], "SDTMVAR": "IESCAT"}, {"SDTMDOM": ["TI"], "SDTMVAR": "IETEST"}, {"SDTMDOM": ["TI"], "SDTMVAR": "IETESTCD"}, {"SDTMDOM": ["DM"], "SDTMVAR": "INVID"}, {"SDTMDOM": ["DM"], "SDTMVAR": "INVNAM"}, {"SDTMDOM": ["SM"], "SDTMVAR": "MIDS"}, {"SDTMDOM": ["SM", "TM"], "SDTMVAR": "MIDSTYPE"}, {"SDTMDOM": ["OI"], "SDTMVAR": "NHOID"}, {"SDTMDOM": ["OI"], "SDTMVAR": "OIPARM"}, {"SDTMDOM": ["OI"], "SDTMVAR": "OIPARMCD"}, {"SDTMDOM": ["OI"], "SDTMVAR": "OISEQ"}, {"SDTMDOM": ["OI"], "SDTMVAR": "OIVAL"}, {"SDTMDOM": ["CO", "RELREC", "SUPPQUAL", "POOLDEF", "RELSUB"], "SDTMVAR": "POOLID"}, {"SDTMDOM": ["SUPPQUAL"], "SDTMVAR": "QEVAL"}, {"SDTMDOM": ["SUPPQUAL"], "SDTMVAR": "QLABEL"}, {"SDTMDOM": ["SUPPQUAL"], "SDTMVAR": "QNAM"}, {"SDTMDOM": ["SUPPQUAL"], "SDTMVAR": "QORIG"}, {"SDTMDOM": ["SUPPQUAL"], "SDTMVAR": "QVAL"}, {"SDTMDOM": ["DM"], "SDTMVAR": "RACE"}, {"SDTMDOM": ["APRELSUB"], "SDTMVAR": "RDEVID"}, {"SDTMDOM": ["CO", "RELREC", "SUPPQUAL"], "SDTMVAR": "RDOMAIN"}, {"SDTMDOM": ["RELREC"], "SDTMVAR": "RELID"}, {"SDTMDOM": ["RELREC"], "SDTMVAR": "RELTYPE"}, {"SDTMDOM": ["DM"], "SDTMVAR": "RFENDTC"}, {"SDTMDOM": ["DM"], "SDTMVAR": "RFICDTC"}, {"SDTMDOM": ["DM"], "SDTMVAR": "RFPENDTC"}, {"SDTMDOM": ["DM"], "SDTMVAR": "RFSTDTC"}, {"SDTMDOM": ["DM"], "SDTMVAR": "RFXENDTC"}, {"SDTMDOM": ["DM"], "SDTMVAR": "RFXSTDTC"}, {"SDTMDOM": ["TP"], "SDTMVAR": "RPATH"}, {"SDTMDOM": ["DM", "TP"], "SDTMVAR": "RPATHCD"}, {"SDTMDOM": ["SJ", "TP"], "SDTMVAR": "RPHASE"}, {"SDTMDOM": ["TP"], "SDTMVAR": "RPRFDY"}, {"SDTMDOM": ["SJ", "TT", "TP"], "SDTMVAR": "RSTAGE"}, {"SDTMDOM": ["SJ", "TT", "TP"], "SDTMVAR": "RSTGCD"}, {"SDTMDOM": ["RELSUB", "APRELSUB"], "SDTMVAR": "RSUBJID"}, {"SDTMDOM": ["DM"], "SDTMVAR": "SBSTRAIN"}, {"SDTMDOM": ["SE"], "SDTMVAR": "SEENDTC"}, {"SDTMDOM": ["SE"], "SDTMVAR": "SESEQ"}, {"SDTMDOM": ["SE"], "SDTMVAR": "SESTDTC"}, {"SDTMDOM": ["TX"], "SDTMVAR": "SET"}, {"SDTMDOM": ["DM", "TX"], "SDTMVAR": "SETCD"}, {"SDTMDOM": ["SE"], "SDTMVAR": "SEUPDES"}, {"SDTMDOM": ["DM"], "SDTMVAR": "SEX"}, {"SDTMDOM": ["DM"], "SDTMVAR": "SITEID"}, {"SDTMDOM": ["SJ"], "SDTMVAR": "SJENDTC"}, {"SDTMDOM": ["SJ"], "SDTMVAR": "SJSEQ"}, {"SDTMDOM": ["SJ"], "SDTMVAR": "SJSTDTC"}, {"SDTMDOM": ["SJ"], "SDTMVAR": "SJUPDES"}, {"SDTMDOM": ["SM"], "SDTMVAR": "SMENDTC"}, {"SDTMDOM": ["SM"], "SDTMVAR": "SMENDY"}, {"SDTMDOM": ["SM"], "SDTMVAR": "SMSEQ"}, {"SDTMDOM": ["SM"], "SDTMVAR": "SMSTDTC"}, {"SDTMDOM": ["SM"], "SDTMVAR": "SMSTDY"}, {"SDTMDOM": ["DR", "DI"], "SDTMVAR": "SPDEVID"}, {"SDTMDOM": ["DM"], "SDTMVAR": "SPECIES"}, {"SDTMDOM": ["RELSUB", "APRELSUB"], "SDTMVAR": "SREL"}, {"SDTMDOM": ["DM"], "SDTMVAR": "STRAIN"}, {"SDTMDOM": ["DM", "CO", "SE", "SV", "SM", "SJ", "TE", "TA", "TV", "TX", "TT", "TP", "TI", "TS", "TD", "TM", "RELREC", "SUPPQUAL", "POOLDEF", "RELSUB", "DR", "DI", "OI", "APRELSUB"], "SDTMVAR": "STUDYID"}, {"SDTMDOM": ["DM"], "SDTMVAR": "SUBJID"}, {"SDTMDOM": ["SV"], "SDTMVAR": "SVENDTC"}, {"SDTMDOM": ["SV"], "SDTMVAR": "SVENDY"}, {"SDTMDOM": ["SV"], "SDTMVAR": "SVSTDTC"}, {"SDTMDOM": ["SV"], "SDTMVAR": "SVSTDY"}, {"SDTMDOM": ["SV"], "SDTMVAR": "SVUPDES"}, {"SDTMDOM": ["TA"], "SDTMVAR": "TABRANCH"}, {"SDTMDOM": ["SE", "TA"], "SDTMVAR": "TAETORD"}, {"SDTMDOM": ["TA"], "SDTMVAR": "TATRANS"}, {"SDTMDOM": ["TD"], "SDTMVAR": "TDANCVAR"}, {"SDTMDOM": ["TD"], "SDTMVAR": "TDMAXPAI"}, {"SDTMDOM": ["TD"], "SDTMVAR": "TDMINPAI"}, {"SDTMDOM": ["TD"], "SDTMVAR": "TDNUMRPT"}, {"SDTMDOM": ["TD"], "SDTMVAR": "TDORDER"}, {"SDTMDOM": ["TD"], "SDTMVAR": "TDSTOFF"}, {"SDTMDOM": ["TD"], "SDTMVAR": "TDTGTPAI"}, {"SDTMDOM": ["TE"], "SDTMVAR": "TEDUR"}, {"SDTMDOM": ["TE"], "SDTMVAR": "TEENRL"}, {"SDTMDOM": ["TE"], "SDTMVAR": "TESTRL"}, {"SDTMDOM": ["TI"], "SDTMVAR": "TIRL"}, {"SDTMDOM": ["TI"], "SDTMVAR": "TIVERS"}, {"SDTMDOM": ["TM"], "SDTMVAR": "TMDEF"}, {"SDTMDOM": ["TM"], "SDTMVAR": "TMRPT"}, {"SDTMDOM": ["TP"], "SDTMVAR": "TPBRANCH"}, {"SDTMDOM": ["TP"], "SDTMVAR": "TPSTGORD"}, {"SDTMDOM": ["TS"], "SDTMVAR": "TSGRPID"}, {"SDTMDOM": ["TS"], "SDTMVAR": "TSPARM"}, {"SDTMDOM": ["TS"], "SDTMVAR": "TSPARMCD"}, {"SDTMDOM": ["TS"], "SDTMVAR": "TSSEQ"}, {"SDTMDOM": ["TS"], "SDTMVAR": "TSVAL"}, {"SDTMDOM": ["TS"], "SDTMVAR": "TSVALCD"}, {"SDTMDOM": ["TS"], "SDTMVAR": "TSVALNF"}, {"SDTMDOM": ["TS"], "SDTMVAR": "TSVCDREF"}, {"SDTMDOM": ["TS"], "SDTMVAR": "TSVCDVER"}, {"SDTMDOM": ["TT"], "SDTMVAR": "TTDUR"}, {"SDTMDOM": ["TT"], "SDTMVAR": "TTENRL"}, {"SDTMDOM": ["TT"], "SDTMVAR": "TTSTRL"}, {"SDTMDOM": ["TV"], "SDTMVAR": "TVENRL"}, {"SDTMDOM": ["TV"], "SDTMVAR": "TVSTRL"}, {"SDTMDOM": ["TX"], "SDTMVAR": "TXPARM"}, {"SDTMDOM": ["TX"], "SDTMVAR": "TXPARMCD"}, {"SDTMDOM": ["TX"], "SDTMVAR": "TXSEQ"}, {"SDTMDOM": ["TX"], "SDTMVAR": "TXVAL"}, {"SDTMDOM": ["DM", "CO", "SE", "SV", "SM", "SJ", "RELREC", "SUPPQUAL", "POOLDEF", "RELSUB", "DR"], "SDTMVAR": "USUBJID"}, {"SDTMDOM": ["SV", "TV"], "SDTMVAR": "VISIT"}, {"SDTMDOM": ["SV", "TV"], "SDTMVAR": "VISITDY"}, {"SDTMDOM": ["SV", "TV"], "SDTMVAR": "VISITNUM"}], "CREATED": "20200706T114313", "SANOFISDTM": [{"SDTMDOM": ["DM"], "SDTMVAR": "ACTARM"}, {"SDTMDOM": ["DM"], "SDTMVAR": "ACTARMCD"}, {"SDTMDOM": ["SUPPAE"], "SDTMVAR": "AEACCMED"}, {"SDTMDOM": ["SUPPAE"], "SDTMVAR": "AEACHCP"}, {"SDTMDOM": ["SUPPAE"], "SDTMVAR": "AEACHOS"}, {"SDTMDOM": ["AE", "APAE"], "SDTMVAR": "AEACN"}, {"SDTMDOM": ["SUPPAE", "SQAPAE"], "SDTMVAR": "AEACN1"}, {"SDTMDOM": ["SUPPAE", "SQAPAE"], "SDTMVAR": "AEACN2"}, {"SDTMDOM": ["SUPPAE", "SQAPAE"], "SDTMVAR": "AEACN3"}, {"SDTMDOM": ["SUPPAE", "SQAPAE"], "SDTMVAR": "AEACN4"}, {"SDTMDOM": ["SUPPAE"], "SDTMVAR": "AEACNC"}, {"SDTMDOM": ["SUPPAE"], "SDTMVAR": "AEACNC1"}, {"SDTMDOM": ["SUPPAE"], "SDTMVAR": "AEACNC2"}, {"SDTMDOM": ["SUPPAE"], "SDTMVAR": "AEACNC3"}, {"SDTMDOM": ["SUPPAE"], "SDTMVAR": "AEACNC4"}, {"SDTMDOM": ["SUPPAE"], "SDTMVAR": "AEACNDT"}, {"SDTMDOM": ["SUPPAE"], "SDTMVAR": "AEACNNO"}, {"SDTMDOM": ["SUPPAE"], "SDTMVAR": "AEACNOSP"}, {"SDTMDOM": ["SUPPAE"], "SDTMVAR": "AEACNOT"}, {"SDTMDOM": ["SUPPAE"], "SDTMVAR": "AEACVACD"}, {"SDTMDOM": ["AE", "APAE"], "SDTMVAR": "AEBDSYCD"}, {"SDTMDOM": ["AE", "APAE"], "SDTMVAR": "AEBODSYS"}, {"SDTMDOM": ["AE", "APAE"], "SDTMVAR": "AECAT"}, {"SDTMDOM": ["AE"], "SDTMVAR": "AECONTRT"}, {"SDTMDOM": ["SUPPAE"], "SDTMVAR": "AECYCNAM"}, {"SDTMDOM": ["SUPPAE"], "SDTMVAR": "AECYCVID"}, {"SDTMDOM": ["AE", "APAE"], "SDTMVAR": "AEDECOD"}, {"SDTMDOM": ["SUPPAE", "SQAPAE"], "SDTMVAR": "AEDICTV"}, {"SDTMDOM": ["AE"], "SDTMVAR": "AEDIR"}, {"SDTMDOM": ["SUPPAE"], "SDTMVAR": "AEDIS"}, {"SDTMDOM": ["SUPPAE"], "SDTMVAR": "AEDLT"}, {"SDTMDOM": ["SUPPAE"], "SDTMVAR": "AEDTHDTC"}, {"SDTMDOM": ["SUPPAE"], "SDTMVAR": "AEELPTIM"}, {"SDTMDOM": ["AE", "APAE"], "SDTMVAR": "AEENDTC"}, {"SDTMDOM": ["AE", "APAE"], "SDTMVAR": "AEENDY"}, {"SDTMDOM": ["AE"], "SDTMVAR": "AEENRF"}, {"SDTMDOM": ["AE"], "SDTMVAR": "AEENRTPT"}, {"SDTMDOM": ["AE"], "SDTMVAR": "AEENTPT"}, {"SDTMDOM": ["AE", "APAE"], "SDTMVAR": "AEHLGT"}, {"SDTMDOM": ["AE", "APAE"], "SDTMVAR": "AEHLGTCD"}, {"SDTMDOM": ["AE", "APAE"], "SDTMVAR": "AEHLT"}, {"SDTMDOM": ["AE", "APAE"], "SDTMVAR": "AEHLTCD"}, {"SDTMDOM": ["SUPPAE"], "SDTMVAR": "AEIAR"}, {"SDTMDOM": ["SUPPAE"], "SDTMVAR": "AEIMM"}, {"SDTMDOM": ["SUPPAE", "SQAPAE"], "SDTMVAR": "AEISPID"}, {"SDTMDOM": ["AE"], "SDTMVAR": "AELAT"}, {"SDTMDOM": ["AE", "APAE"], "SDTMVAR": "AELLT"}, {"SDTMDOM": ["AE", "APAE"], "SDTMVAR": "AELLTCD"}, {"SDTMDOM": ["AE"], "SDTMVAR": "AELNKID"}, {"SDTMDOM": ["AE"], "SDTMVAR": "AELOC"}, {"SDTMDOM": ["SUPPAE"], "SDTMVAR": "AEMAAE"}, {"SDTMDOM": ["SUPPAE"], "SDTMVAR": "AEMEOI"}, {"SDTMDOM": ["SUPPAE"], "SDTMVAR": "AEMS"}, {"SDTMDOM": ["SUPPAE"], "SDTMVAR": "AEMSM"}, {"SDTMDOM": ["SUPPAE"], "SDTMVAR": "AEMSNM"}, {"SDTMDOM": ["SUPPAE"], "SDTMVAR": "AEMSU"}, {"SDTMDOM": ["AE"], "SDTMVAR": "AEOUT"}, {"SDTMDOM": ["SUPPAE", "SQAPAE"], "SDTMVAR": "AEOUTPRG"}, {"SDTMDOM": ["SUPPAE"], "SDTMVAR": "AEOVIMP"}, {"SDTMDOM": ["SUPPAE"], "SDTMVAR": "AEOVIMP2"}, {"SDTMDOM": ["SUPPAE"], "SDTMVAR": "AEOVIMP3"}, {"SDTMDOM": ["SUPPAE"], "SDTMVAR": "AEOVIMP4"}, {"SDTMDOM": ["SUPPAE"], "SDTMVAR": "AEOVNCM"}, {"SDTMDOM": ["SUPPAE"], "SDTMVAR": "AEOVNCMS"}, {"SDTMDOM": ["SUPPAE"], "SDTMVAR": "AEOVNIMP"}, {"SDTMDOM": ["SUPPAE"], "SDTMVAR": "AEOVOTCM"}, {"SDTMDOM": ["SUPPAE"], "SDTMVAR": "AEOVSYMP"}, {"SDTMDOM": ["SUPPAE", "SQAPAE"], "SDTMVAR": "AEPRAEYN"}, {"SDTMDOM": ["AE", "APAE"], "SDTMVAR": "AEPTCD"}, {"SDTMDOM": ["AE", "APAE"], "SDTMVAR": "AEREFID"}, {"SDTMDOM": ["AE", "APAE"], "SDTMVAR": "AEREL"}, {"SDTMDOM": ["SUPPAE", "SQAPAE"], "SDTMVAR": "AEREL1"}, {"SDTMDOM": ["SUPPAE", "SQAPAE"], "SDTMVAR": "AEREL2"}, {"SDTMDOM": ["SUPPAE", "SQAPAE"], "SDTMVAR": "AEREL3"}, {"SDTMDOM": ["SUPPAE", "SQAPAE"], "SDTMVAR": "AEREL4"}, {"SDTMDOM": ["SUPPAE", "SQAPAE"], "SDTMVAR": "AERELNS2"}, {"SDTMDOM": ["SUPPAE", "SQAPAE"], "SDTMVAR": "AERELNS3"}, {"SDTMDOM": ["SUPPAE", "SQAPAE"], "SDTMVAR": "AERELNS4"}, {"SDTMDOM": ["AE", "APAE"], "SDTMVAR": "AERELNST"}, {"SDTMDOM": ["SUPPAE"], "SDTMVAR": "AERELPR"}, {"SDTMDOM": ["AE"], "SDTMVAR": "AESCAT"}, {"SDTMDOM": ["AE"], "SDTMVAR": "AESCONG"}, {"SDTMDOM": ["AE"], "SDTMVAR": "AESDISAB"}, {"SDTMDOM": ["AE"], "SDTMVAR": "AESDTH"}, {"SDTMDOM": ["AE", "APAE"], "SDTMVAR": "AESEQ"}, {"SDTMDOM": ["SUPPAE"], "SDTMVAR": "AESEQUCM"}, {"SDTMDOM": ["AE"], "SDTMVAR": "AESER"}, {"SDTMDOM": ["SUPPAE"], "SDTMVAR": "AESERDTC"}, {"SDTMDOM": ["AE"], "SDTMVAR": "AESEV"}, {"SDTMDOM": ["SUPPAE"], "SDTMVAR": "AESEVMD"}, {"SDTMDOM": ["AE"], "SDTMVAR": "AESHOSP"}, {"SDTMDOM": ["SUPPAE"], "SDTMVAR": "AESIAR"}, {"SDTMDOM": ["SUPPAE"], "SDTMVAR": "AESIDEN"}, {"SDTMDOM": ["SUPPAE"], "SDTMVAR": "AESIIN"}, {"SDTMDOM": ["SUPPAE"], "SDTMVAR": "AESINV"}, {"SDTMDOM": ["AE"], "SDTMVAR": "AESLIFE"}, {"SDTMDOM": ["AE"], "SDTMVAR": "AESMIE"}, {"SDTMDOM": ["AE", "APAE"], "SDTMVAR": "AESOC"}, {"SDTMDOM": ["AE", "APAE"], "SDTMVAR": "AESOCCD"}, {"SDTMDOM": ["SUPPAE"], "SDTMVAR": "AESTABLE"}, {"SDTMDOM": ["AE", "APAE"], "SDTMVAR": "AESTDTC"}, {"SDTMDOM": ["AE", "APAE"], "SDTMVAR": "AESTDY"}, {"SDTMDOM": ["AE", "APAE"], "SDTMVAR": "AETERM"}, {"SDTMDOM": ["AE"], "SDTMVAR": "AETOXGR"}, {"SDTMDOM": ["SUPPAE"], "SDTMVAR": "AETOXGRV"}, {"SDTMDOM": ["SUPPAE"], "SDTMVAR": "AETRT"}, {"SDTMDOM": ["SUPPAE"], "SDTMVAR": "AETRTEM"}, {"SDTMDOM": ["AG"], "SDTMVAR": "AGCAT"}, {"SDTMDOM": ["DM"], "SDTMVAR": "AGE"}, {"SDTMDOM": ["AG"], "SDTMVAR": "AGELTM"}, {"SDTMDOM": ["DM"], "SDTMVAR": "AGEU"}, {"SDTMDOM": ["AG"], "SDTMVAR": "AGOCCUR"}, {"SDTMDOM": ["AG"], "SDTMVAR": "AGPRESP"}, {"SDTMDOM": ["AG"], "SDTMVAR": "AGROUTE"}, {"SDTMDOM": ["AG"], "SDTMVAR": "AGSCAT"}, {"SDTMDOM": ["AG"], "SDTMVAR": "AGSEQ"}, {"SDTMDOM": ["AG"], "SDTMVAR": "AGSPID"}, {"SDTMDOM": ["AG"], "SDTMVAR": "AGSTDTC"}, {"SDTMDOM": ["AG"], "SDTMVAR": "AGSTDY"}, {"SDTMDOM": ["AG"], "SDTMVAR": "AGTPT"}, {"SDTMDOM": ["AG"], "SDTMVAR": "AGTPTNUM"}, {"SDTMDOM": ["AG"], "SDTMVAR": "AGTPTREF"}, {"SDTMDOM": ["AG"], "SDTMVAR": "AGTRT"}, {"SDTMDOM": ["SUPPSV"], "SDTMVAR": "APERIOD"}, {"SDTMDOM": ["SUPPSV"], "SDTMVAR": "APERIODC"}, {"SDTMDOM": ["APAE", "APMH"], "SDTMVAR": "APID"}, {"SDTMDOM": ["DM", "TA", "TV"], "SDTMVAR": "ARM"}, {"SDTMDOM": ["DM", "TA", "TV"], "SDTMVAR": "ARMCD"}, {"SDTMDOM": ["DM"], "SDTMVAR": "BRTHDTC"}, {"SDTMDOM": ["CC", "CCLN"], "SDTMVAR": "CCBLFL"}, {"SDTMDOM": ["CC", "CCLN"], "SDTMVAR": "CCCAT"}, {"SDTMDOM": ["CC", "CCLN"], "SDTMVAR": "CCDRVFL"}, {"SDTMDOM": ["CC", "CCLN"], "SDTMVAR": "CCDTC"}, {"SDTMDOM": ["CC", "CCLN"], "SDTMVAR": "CCDY"}, {"SDTMDOM": ["CC", "CCLN"], "SDTMVAR": "CCELTM"}, {"SDTMDOM": ["CC", "CCLN"], "SDTMVAR": "CCEVAL"}, {"SDTMDOM": ["SUPPCC"], "SDTMVAR": "CCEVALGL"}, {"SDTMDOM": ["CC", "CCLN"], "SDTMVAR": "CCEVALID"}, {"SDTMDOM": ["CC", "CCLN"], "SDTMVAR": "CCEVINTX"}, {"SDTMDOM": ["CC", "CCLN"], "SDTMVAR": "CCEVLINT"}, {"SDTMDOM": ["CC", "CCLN"], "SDTMVAR": "CCGRPID"}, {"SDTMDOM": ["CC", "CCLN"], "SDTMVAR": "CCLNKGRP"}, {"SDTMDOM": ["CC", "CCLN"], "SDTMVAR": "CCLNKID"}, {"SDTMDOM": ["CC", "CCLN"], "SDTMVAR": "CCORRES"}, {"SDTMDOM": ["CC", "CCLN"], "SDTMVAR": "CCORRESU"}, {"SDTMDOM": ["CC", "CCLN"], "SDTMVAR": "CCREASND"}, {"SDTMDOM": ["CC", "CCLN"], "SDTMVAR": "CCRESCAT"}, {"SDTMDOM": ["CC", "CCLN"], "SDTMVAR": "CCRFTDTC"}, {"SDTMDOM": ["CC", "CCLN"], "SDTMVAR": "CCSCAT"}, {"SDTMDOM": ["CC", "CCLN"], "SDTMVAR": "CCSEQ"}, {"SDTMDOM": ["CC", "CCLN"], "SDTMVAR": "CCSPID"}, {"SDTMDOM": ["CC", "CCLN"], "SDTMVAR": "CCSTAT"}, {"SDTMDOM": ["CC", "CCLN"], "SDTMVAR": "CCSTRESC"}, {"SDTMDOM": ["CC", "CCLN"], "SDTMVAR": "CCSTRESN"}, {"SDTMDOM": ["CC", "CCLN"], "SDTMVAR": "CCSTRESU"}, {"SDTMDOM": ["CC", "CCLN"], "SDTMVAR": "CCTEST"}, {"SDTMDOM": ["CC", "CCLN"], "SDTMVAR": "CCTESTCD"}, {"SDTMDOM": ["CC", "CCLN"], "SDTMVAR": "CCTPT"}, {"SDTMDOM": ["CC", "CCLN"], "SDTMVAR": "CCTPTNUM"}, {"SDTMDOM": ["CC", "CCLN"], "SDTMVAR": "CCTPTREF"}, {"SDTMDOM": ["SUPPCE"], "SDTMVAR": "CEACCYN"}, {"SDTMDOM": ["CE"], "SDTMVAR": "CEBDSYCD"}, {"SDTMDOM": ["CE"], "SDTMVAR": "CEBODSYS"}, {"SDTMDOM": ["CE"], "SDTMVAR": "CECAT"}, {"SDTMDOM": ["SUPPCE"], "SDTMVAR": "CECM"}, {"SDTMDOM": ["SUPPCE"], "SDTMVAR": "CECVOUT"}, {"SDTMDOM": ["CE"], "SDTMVAR": "CEDECOD"}, {"SDTMDOM": ["SUPPCE"], "SDTMVAR": "CEDICTV"}, {"SDTMDOM": ["CE"], "SDTMVAR": "CEDIR"}, {"SDTMDOM": ["CE"], "SDTMVAR": "CEENDTC"}, {"SDTMDOM": ["CE"], "SDTMVAR": "CEENDY"}, {"SDTMDOM": ["SUPPCE"], "SDTMVAR": "CEEVTMNG"}, {"SDTMDOM": ["CE"], "SDTMVAR": "CEHLGT"}, {"SDTMDOM": ["CE"], "SDTMVAR": "CEHLGTCD"}, {"SDTMDOM": ["CE"], "SDTMVAR": "CEHLT"}, {"SDTMDOM": ["CE"], "SDTMVAR": "CEHLTCD"}, {"SDTMDOM": ["SUPPCE"], "SDTMVAR": "CEHPSER"}, {"SDTMDOM": ["SUPPCE"], "SDTMVAR": "CEHPTCON"}, {"SDTMDOM": ["SUPPCE"], "SDTMVAR": "CEHPTREP"}, {"SDTMDOM": ["CE"], "SDTMVAR": "CELAT"}, {"SDTMDOM": ["SUPPCE"], "SDTMVAR": "CELDUR"}, {"SDTMDOM": ["CE"], "SDTMVAR": "CELLT"}, {"SDTMDOM": ["CE"], "SDTMVAR": "CELLTCD"}, {"SDTMDOM": ["CE"], "SDTMVAR": "CELNKID"}, {"SDTMDOM": ["CE"], "SDTMVAR": "CELOC"}, {"SDTMDOM": ["CE"], "SDTMVAR": "CEOCCUR"}, {"SDTMDOM": ["SUPPCE"], "SDTMVAR": "CEOCCUR1"}, {"SDTMDOM": ["SUPPCE"], "SDTMVAR": "CEOCCUR2"}, {"SDTMDOM": ["CE"], "SDTMVAR": "CEPRESP"}, {"SDTMDOM": ["SUPPCE"], "SDTMVAR": "CEPRTRT"}, {"SDTMDOM": ["CE"], "SDTMVAR": "CEPTCD"}, {"SDTMDOM": ["CE"], "SDTMVAR": "CEREFID"}, {"SDTMDOM": ["SUPPCE"], "SDTMVAR": "CEREFID1"}, {"SDTMDOM": ["CE"], "SDTMVAR": "CESCAT"}, {"SDTMDOM": ["CE"], "SDTMVAR": "CESEQ"}, {"SDTMDOM": ["CE"], "SDTMVAR": "CESOC"}, {"SDTMDOM": ["CE"], "SDTMVAR": "CESOCCD"}, {"SDTMDOM": ["CE"], "SDTMVAR": "CESPID"}, {"SDTMDOM": ["CE"], "SDTMVAR": "CESTAT"}, {"SDTMDOM": ["CE"], "SDTMVAR": "CESTDTC"}, {"SDTMDOM": ["CE"], "SDTMVAR": "CESTDY"}, {"SDTMDOM": ["CE"], "SDTMVAR": "CESTRTPT"}, {"SDTMDOM": ["CE"], "SDTMVAR": "CESTTPT"}, {"SDTMDOM": ["CE"], "SDTMVAR": "CETERM"}, {"SDTMDOM": ["SUPPCE"], "SDTMVAR": "CEWHEOCC"}, {"SDTMDOM": ["CI"], "SDTMVAR": "CICAT"}, {"SDTMDOM": ["CI"], "SDTMVAR": "CIDTC"}, {"SDTMDOM": ["CI"], "SDTMVAR": "CIDY"}, {"SDTMDOM": ["CI"], "SDTMVAR": "CISEQ"}, {"SDTMDOM": ["CI"], "SDTMVAR": "CISPID"}, {"SDTMDOM": ["CI"], "SDTMVAR": "CITERM"}, {"SDTMDOM": ["SUPPCM"], "SDTMVAR": "CMACCYN"}, {"SDTMDOM": ["SUPPCM"], "SDTMVAR": "CMAENO"}, {"SDTMDOM": ["SUPPCM"], "SDTMVAR": "CMBR"}, {"SDTMDOM": ["CM"], "SDTMVAR": "CMCAT"}, {"SDTMDOM": ["SUPPCM"], "SDTMVAR": "CMCLSIG"}, {"SDTMDOM": ["SUPPCM"], "SDTMVAR": "CMCM"}, {"SDTMDOM": ["CM"], "SDTMVAR": "CMDECOD"}, {"SDTMDOM": ["SUPPCM"], "SDTMVAR": "CMDECOD1"}, {"SDTMDOM": ["SUPPCM"], "SDTMVAR": "CMDECOD2"}, {"SDTMDOM": ["SUPPCM"], "SDTMVAR": "CMDECOD3"}, {"SDTMDOM": ["SUPPCM"], "SDTMVAR": "CMDECOD4"}, {"SDTMDOM": ["SUPPCM"], "SDTMVAR": "CMDECOD5"}, {"SDTMDOM": ["SUPPCM"], "SDTMVAR": "CMDECOD6"}, {"SDTMDOM": ["SUPPCM"], "SDTMVAR": "CMDECOD7"}, {"SDTMDOM": ["SUPPCM"], "SDTMVAR": "CMDICTV"}, {"SDTMDOM": ["CM"], "SDTMVAR": "CMDOSE"}, {"SDTMDOM": ["CM"], "SDTMVAR": "CMDOSFRQ"}, {"SDTMDOM": ["CM"], "SDTMVAR": "CMDOSTOT"}, {"SDTMDOM": ["CM"], "SDTMVAR": "CMDOSTXT"}, {"SDTMDOM": ["CM"], "SDTMVAR": "CMDOSU"}, {"SDTMDOM": ["SUPPCM"], "SDTMVAR": "CMDSROTH"}, {"SDTMDOM": ["CM"], "SDTMVAR": "CMENDTC"}, {"SDTMDOM": ["CM"], "SDTMVAR": "CMENDY"}, {"SDTMDOM": ["CM"], "SDTMVAR": "CMENRF"}, {"SDTMDOM": ["CM"], "SDTMVAR": "CMENRTPT"}, {"SDTMDOM": ["CM"], "SDTMVAR": "CMENTPT"}, {"SDTMDOM": ["SUPPCM"], "SDTMVAR": "CMFRQOTH"}, {"SDTMDOM": ["CM"], "SDTMVAR": "CMGRPID"}, {"SDTMDOM": ["CM"], "SDTMVAR": "CMINDC"}, {"SDTMDOM": ["SUPPCM"], "SDTMVAR": "CMINGRD"}, {"SDTMDOM": ["CM"], "SDTMVAR": "CMLNKID"}, {"SDTMDOM": ["SUPPCM"], "SDTMVAR": "CMMHNO"}, {"SDTMDOM": ["CM"], "SDTMVAR": "CMOCCUR"}, {"SDTMDOM": ["SUPPCM"], "SDTMVAR": "CMOCCUR1"}, {"SDTMDOM": ["SUPPCM"], "SDTMVAR": "CMOCCUR2"}, {"SDTMDOM": ["SUPPCM"], "SDTMVAR": "CMOCCUR3"}, {"SDTMDOM": ["SUPPCM"], "SDTMVAR": "CMPREP"}, {"SDTMDOM": ["CM"], "SDTMVAR": "CMPRESP"}, {"SDTMDOM": ["SUPPCM"], "SDTMVAR": "CMPROHFL"}, {"SDTMDOM": ["SUPPCM"], "SDTMVAR": "CMPROPFL"}, {"SDTMDOM": ["SUPPCM"], "SDTMVAR": "CMREACSP"}, {"SDTMDOM": ["SUPPCM"], "SDTMVAR": "CMREACYN"}, {"SDTMDOM": ["CM"], "SDTMVAR": "CMREASND"}, {"SDTMDOM": ["SUPPCM"], "SDTMVAR": "CMRECNO"}, {"SDTMDOM": ["SUPPCM"], "SDTMVAR": "CMRESTRT"}, {"SDTMDOM": ["SUPPCM"], "SDTMVAR": "CMROTOTH"}, {"SDTMDOM": ["CM"], "SDTMVAR": "CMROUTE"}, {"SDTMDOM": ["SUPPCM"], "SDTMVAR": "CMROUTEC"}, {"SDTMDOM": ["SUPPCM"], "SDTMVAR": "CMRPDTC"}, {"SDTMDOM": ["SUPPCM"], "SDTMVAR": "CMRPDY"}, {"SDTMDOM": ["SUPPCM"], "SDTMVAR": "CMRSDISC"}, {"SDTMDOM": ["CM"], "SDTMVAR": "CMSCAT"}, {"SDTMDOM": ["CM"], "SDTMVAR": "CMSEQ"}, {"SDTMDOM": ["SUPPCM"], "SDTMVAR": "CMSEQ1"}, {"SDTMDOM": ["SUPPCM"], "SDTMVAR": "CMSEQ2"}, {"SDTMDOM": ["CM"], "SDTMVAR": "CMSPID"}, {"SDTMDOM": ["CM"], "SDTMVAR": "CMSTAT"}, {"SDTMDOM": ["CM"], "SDTMVAR": "CMSTDTC"}, {"SDTMDOM": ["CM"], "SDTMVAR": "CMSTDY"}, {"SDTMDOM": ["CM"], "SDTMVAR": "CMSTRF"}, {"SDTMDOM": ["CM"], "SDTMVAR": "CMSTRTPT"}, {"SDTMDOM": ["CM"], "SDTMVAR": "CMSTTPT"}, {"SDTMDOM": ["CM"], "SDTMVAR": "CMTPT"}, {"SDTMDOM": ["CM"], "SDTMVAR": "CMTRT"}, {"SDTMDOM": ["SUPPCM"], "SDTMVAR": "CMVACTYP"}, {"SDTMDOM": ["SUPPDM"], "SDTMVAR": "COHORT"}, {"SDTMDOM": ["SUPPDM"], "SDTMVAR": "COMPLT"}, {"SDTMDOM": ["CO"], "SDTMVAR": "COREF"}, {"SDTMDOM": ["CO"], "SDTMVAR": "COSEQ"}, {"SDTMDOM": ["CO"], "SDTMVAR": "COTPTREF"}, {"SDTMDOM": ["DM"], "SDTMVAR": "COUNTRY"}, {"SDTMDOM": ["CO"], "SDTMVAR": "COVAL"}, {"SDTMDOM": ["CV"], "SDTMVAR": "CVBLFL"}, {"SDTMDOM": ["CV"], "SDTMVAR": "CVCAT"}, {"SDTMDOM": ["CV"], "SDTMVAR": "CVDIR"}, {"SDTMDOM": ["CV"], "SDTMVAR": "CVDRVFL"}, {"SDTMDOM": ["CV"], "SDTMVAR": "CVDTC"}, {"SDTMDOM": ["CV"], "SDTMVAR": "CVDY"}, {"SDTMDOM": ["CV"], "SDTMVAR": "CVELTM"}, {"SDTMDOM": ["CV"], "SDTMVAR": "CVEVAL"}, {"SDTMDOM": ["CV"], "SDTMVAR": "CVGRPID"}, {"SDTMDOM": ["CV"], "SDTMVAR": "CVLAT"}, {"SDTMDOM": ["CV"], "SDTMVAR": "CVLOC"}, {"SDTMDOM": ["CV"], "SDTMVAR": "CVMETHOD"}, {"SDTMDOM": ["CV"], "SDTMVAR": "CVORRES"}, {"SDTMDOM": ["CV"], "SDTMVAR": "CVORRESU"}, {"SDTMDOM": ["CV"], "SDTMVAR": "CVPOS"}, {"SDTMDOM": ["CV"], "SDTMVAR": "CVREASND"}, {"SDTMDOM": ["CV"], "SDTMVAR": "CVREFID"}, {"SDTMDOM": ["CV"], "SDTMVAR": "CVRFTDTC"}, {"SDTMDOM": ["CV"], "SDTMVAR": "CVSCAT"}, {"SDTMDOM": ["CV"], "SDTMVAR": "CVSEQ"}, {"SDTMDOM": ["CV"], "SDTMVAR": "CVSPID"}, {"SDTMDOM": ["CV"], "SDTMVAR": "CVSTAT"}, {"SDTMDOM": ["CV"], "SDTMVAR": "CVSTRESC"}, {"SDTMDOM": ["CV"], "SDTMVAR": "CVSTRESN"}, {"SDTMDOM": ["CV"], "SDTMVAR": "CVSTRESU"}, {"SDTMDOM": ["CV"], "SDTMVAR": "CVTEST"}, {"SDTMDOM": ["CV"], "SDTMVAR": "CVTESTCD"}, {"SDTMDOM": ["CV"], "SDTMVAR": "CVTPT"}, {"SDTMDOM": ["CV"], "SDTMVAR": "CVTPTNUM"}, {"SDTMDOM": ["CV"], "SDTMVAR": "CVTPTREF"}, {"SDTMDOM": ["DA"], "SDTMVAR": "DACAT"}, {"SDTMDOM": ["DA"], "SDTMVAR": "DADTC"}, {"SDTMDOM": ["DA"], "SDTMVAR": "DADY"}, {"SDTMDOM": ["DA"], "SDTMVAR": "DAORRES"}, {"SDTMDOM": ["DA"], "SDTMVAR": "DAORRESU"}, {"SDTMDOM": ["DA"], "SDTMVAR": "DASCAT"}, {"SDTMDOM": ["DA"], "SDTMVAR": "DASEQ"}, {"SDTMDOM": ["DA"], "SDTMVAR": "DASTRESC"}, {"SDTMDOM": ["DA"], "SDTMVAR": "DASTRESN"}, {"SDTMDOM": ["DA"], "SDTMVAR": "DASTRESU"}, {"SDTMDOM": ["SUPPDA"], "SDTMVAR": "DATABTN"}, {"SDTMDOM": ["DA"], "SDTMVAR": "DATEST"}, {"SDTMDOM": ["DA"], "SDTMVAR": "DATESTCD"}, {"SDTMDOM": ["DD"], "SDTMVAR": "DDDTC"}, {"SDTMDOM": ["DD"], "SDTMVAR": "DDDY"}, {"SDTMDOM": ["DD"], "SDTMVAR": "DDORRES"}, {"SDTMDOM": ["DD"], "SDTMVAR": "DDSEQ"}, {"SDTMDOM": ["DD"], "SDTMVAR": "DDSTRESC"}, {"SDTMDOM": ["DD"], "SDTMVAR": "DDTEST"}, {"SDTMDOM": ["DD"], "SDTMVAR": "DDTESTCD"}, {"SDTMDOM": ["DE"], "SDTMVAR": "DEACNDEV"}, {"SDTMDOM": ["SUPPDE"], "SDTMVAR": "DEAENO"}, {"SDTMDOM": ["DE"], "SDTMVAR": "DECAT"}, {"SDTMDOM": ["DE"], "SDTMVAR": "DEDECOD"}, {"SDTMDOM": ["DE"], "SDTMVAR": "DEDTC"}, {"SDTMDOM": ["DE"], "SDTMVAR": "DEDY"}, {"SDTMDOM": ["DE"], "SDTMVAR": "DEENDTC"}, {"SDTMDOM": ["DE"], "SDTMVAR": "DEENDY"}, {"SDTMDOM": ["DE"], "SDTMVAR": "DEMODIFY"}, {"SDTMDOM": ["DE"], "SDTMVAR": "DEOCCUR"}, {"SDTMDOM": ["DE"], "SDTMVAR": "DEPRESP"}, {"SDTMDOM": ["DE"], "SDTMVAR": "DEREASND"}, {"SDTMDOM": ["SUPPDE"], "SDTMVAR": "DEREASOC"}, {"SDTMDOM": ["DE"], "SDTMVAR": "DESCAT"}, {"SDTMDOM": ["DE"], "SDTMVAR": "DESEQ"}, {"SDTMDOM": ["DE"], "SDTMVAR": "DESEV"}, {"SDTMDOM": ["DE"], "SDTMVAR": "DESPID"}, {"SDTMDOM": ["DE"], "SDTMVAR": "DESTAT"}, {"SDTMDOM": ["DE"], "SDTMVAR": "DESTDTC"}, {"SDTMDOM": ["DE"], "SDTMVAR": "DESTDY"}, {"SDTMDOM": ["DE"], "SDTMVAR": "DETERM"}, {"SDTMDOM": ["AE", "AG", "APAE", "APMH", "CC", "CCLN", "CE", "CI", "CM", "CO", "CV", "DA", "DD", "DE", "DM", "DS", "DV", "EC", "EG", "EX", "FA", "FAAE", "FACE", "FAPR", "FARS", "FT", "HO", "IE", "IS", "LB", "LBUS", "MH", "MI", "MK", "ML", "MO", "NV", "OE", "PC", "PE", "PF", "PP", "PR", "QS", "QSCQ", "QSEG", "QSKN", "QSPI", "QSMR", "RE", "RP", "RS", "SC", "SE", "SR", "SS", "SU", "SV", "TA", "TD", "TE", "TI", "TR", "TS", "TU", "TV", "VS"], "SDTMVAR": "DOMAIN"}, {"SDTMDOM": ["SUPPDS"], "SDTMVAR": "DSAENO"}, {"SDTMDOM": ["SUPPDS"], "SDTMVAR": "DSBKAEN2"}, {"SDTMDOM": ["SUPPDS"], "SDTMVAR": "DSBKAEN3"}, {"SDTMDOM": ["SUPPDS"], "SDTMVAR": "DSBKAEN4"}, {"SDTMDOM": ["SUPPDS"], "SDTMVAR": "DSBKAEN5"}, {"SDTMDOM": ["SUPPDS"], "SDTMVAR": "DSBKAENO"}, {"SDTMDOM": ["SUPPDS"], "SDTMVAR": "DSBKMETH"}, {"SDTMDOM": ["SUPPDS"], "SDTMVAR": "DSBKTRT"}, {"SDTMDOM": ["SUPPDS"], "SDTMVAR": "DSBKTRT2"}, {"SDTMDOM": ["SUPPDS"], "SDTMVAR": "DSBKTRT3"}, {"SDTMDOM": ["SUPPDS"], "SDTMVAR": "DSBKTRT4"}, {"SDTMDOM": ["SUPPDS"], "SDTMVAR": "DSBKTRT5"}, {"SDTMDOM": ["SUPPDS"], "SDTMVAR": "DSBKWHO"}, {"SDTMDOM": ["SUPPDS"], "SDTMVAR": "DSBKWHOO"}, {"SDTMDOM": ["DS"], "SDTMVAR": "DSCAT"}, {"SDTMDOM": ["SUPPDS"], "SDTMVAR": "DSCONT"}, {"SDTMDOM": ["DS"], "SDTMVAR": "DSDECOD"}, {"SDTMDOM": ["SUPPDM"], "SDTMVAR": "DSGROUP"}, {"SDTMDOM": ["SUPPDS"], "SDTMVAR": "DSMETHOD"}, {"SDTMDOM": ["SUPPDS"], "SDTMVAR": "DSMTHOTH"}, {"SDTMDOM": ["SUPPDS"], "SDTMVAR": "DSNEXT"}, {"SDTMDOM": ["SUPPDM"], "SDTMVAR": "DSPRSTUD"}, {"SDTMDOM": ["SUPPDM"], "SDTMVAR": "DSPRSUBJ"}, {"SDTMDOM": ["DS"], "SDTMVAR": "DSSCAT"}, {"SDTMDOM": ["DS"], "SDTMVAR": "DSSEQ"}, {"SDTMDOM": ["IVRS"], "SDTMVAR": "DSSTADTC"}, {"SDTMDOM": ["DS"], "SDTMVAR": "DSSTDTC"}, {"SDTMDOM": ["DS"], "SDTMVAR": "DSSTDY"}, {"SDTMDOM": ["DS"], "SDTMVAR": "DSTERM"}, {"SDTMDOM": ["SUPPDS"], "SDTMVAR": "DSTERM1"}, {"SDTMDOM": ["SUPPDS"], "SDTMVAR": "DSTERMCM"}, {"SDTMDOM": ["DM"], "SDTMVAR": "DTHDTC"}, {"SDTMDOM": ["DM"], "SDTMVAR": "DTHFL"}, {"SDTMDOM": ["DV", "LDV"], "SDTMVAR": "DVCAT"}, {"SDTMDOM": ["SUPPDV", "LDV"], "SDTMVAR": "DVCATCH"}, {"SDTMDOM": ["SUPPDV", "LDV"], "SDTMVAR": "DVCATINI"}, {"SDTMDOM": ["SUPPDV", "LDV"], "SDTMVAR": "DVCM"}, {"SDTMDOM": ["SUPPDV", "LDV"], "SDTMVAR": "DVCM1"}, {"SDTMDOM": ["SUPPDV", "LDV"], "SDTMVAR": "DVCM2"}, {"SDTMDOM": ["SUPPDV", "LDV"], "SDTMVAR": "DVCM3"}, {"SDTMDOM": ["DV", "LDV"], "SDTMVAR": "DVDECOD"}, {"SDTMDOM": ["DV", "LDV"], "SDTMVAR": "DVENDTC"}, {"SDTMDOM": ["DV", "LDV"], "SDTMVAR": "DVENDY"}, {"SDTMDOM": ["SUPPDV", "LDV"], "SDTMVAR": "DVIMPACT"}, {"SDTMDOM": ["DV", "LDV"], "SDTMVAR": "DVREFID"}, {"SDTMDOM": ["DV", "LDV"], "SDTMVAR": "DVSEQ"}, {"SDTMDOM": ["SUPPDV", "LDV"], "SDTMVAR": "DVSOURCE"}, {"SDTMDOM": ["DV", "LDV"], "SDTMVAR": "DVSPID"}, {"SDTMDOM": ["DV", "LDV"], "SDTMVAR": "DVSTDTC"}, {"SDTMDOM": ["DV", "LDV"], "SDTMVAR": "DVSTDY"}, {"SDTMDOM": ["DV", "LDV"], "SDTMVAR": "DVTERM"}, {"SDTMDOM": ["SUPPEC"], "SDTMVAR": "ECACCYN"}, {"SDTMDOM": ["EC"], "SDTMVAR": "ECADJ"}, {"SDTMDOM": ["SUPPEC"], "SDTMVAR": "ECBUT"}, {"SDTMDOM": ["SUPPEC"], "SDTMVAR": "ECBUTU"}, {"SDTMDOM": ["EC"], "SDTMVAR": "ECCAT"}, {"SDTMDOM": ["SUPPEC"], "SDTMVAR": "ECCM"}, {"SDTMDOM": ["EC"], "SDTMVAR": "ECDIR"}, {"SDTMDOM": ["SUPPEC"], "SDTMVAR": "ECDOSADJ"}, {"SDTMDOM": ["EC"], "SDTMVAR": "ECDOSE"}, {"SDTMDOM": ["EC"], "SDTMVAR": "ECDOSFRM"}, {"SDTMDOM": ["EC"], "SDTMVAR": "ECDOSFRQ"}, {"SDTMDOM": ["EC"], "SDTMVAR": "ECDOSRGM"}, {"SDTMDOM": ["EC"], "SDTMVAR": "ECDOSTXT"}, {"SDTMDOM": ["EC"], "SDTMVAR": "ECDOSU"}, {"SDTMDOM": ["EC"], "SDTMVAR": "ECELTM"}, {"SDTMDOM": ["SUPPEC"], "SDTMVAR": "ECENDAY"}, {"SDTMDOM": ["EC"], "SDTMVAR": "ECENDTC"}, {"SDTMDOM": ["EC"], "SDTMVAR": "ECENDY"}, {"SDTMDOM": ["EC"], "SDTMVAR": "ECENRF"}, {"SDTMDOM": ["EC"], "SDTMVAR": "ECENRTPT"}, {"SDTMDOM": ["SUPPEC"], "SDTMVAR": "ECENSCDY"}, {"SDTMDOM": ["EC"], "SDTMVAR": "ECENTPT"}, {"SDTMDOM": ["SUPPEC"], "SDTMVAR": "ECETPTTM"}, {"SDTMDOM": ["SUPPEC"], "SDTMVAR": "ECFLRT"}, {"SDTMDOM": ["SUPPEC"], "SDTMVAR": "ECFLRTU"}, {"SDTMDOM": ["EC"], "SDTMVAR": "ECGRPID"}, {"SDTMDOM": ["SUPPEC"], "SDTMVAR": "ECINT"}, {"SDTMDOM": ["SUPPEC"], "SDTMVAR": "ECINTDUR"}, {"SDTMDOM": ["EC"], "SDTMVAR": "ECLAT"}, {"SDTMDOM": ["EC"], "SDTMVAR": "ECLNKGRP"}, {"SDTMDOM": ["EC"], "SDTMVAR": "ECLNKID"}, {"SDTMDOM": ["EC"], "SDTMVAR": "ECLOC"}, {"SDTMDOM": ["SUPPEC"], "SDTMVAR": "ECLOCOTH"}, {"SDTMDOM": ["EC"], "SDTMVAR": "ECLOT"}, {"SDTMDOM": ["SUPPEC"], "SDTMVAR": "ECLOTLB"}, {"SDTMDOM": ["EC"], "SDTMVAR": "ECMOOD"}, {"SDTMDOM": ["EC"], "SDTMVAR": "ECOCCUR"}, {"SDTMDOM": ["SUPPEC"], "SDTMVAR": "ECPERIOD"}, {"SDTMDOM": ["EC"], "SDTMVAR": "ECPRESP"}, {"SDTMDOM": ["EC"], "SDTMVAR": "ECPSTRG"}, {"SDTMDOM": ["EC"], "SDTMVAR": "ECPSTRGU"}, {"SDTMDOM": ["SUPPEC"], "SDTMVAR": "ECREASOC"}, {"SDTMDOM": ["EC"], "SDTMVAR": "ECREFID"}, {"SDTMDOM": ["SUPPEC"], "SDTMVAR": "ECREFID2"}, {"SDTMDOM": ["SUPPEC"], "SDTMVAR": "ECREFID3"}, {"SDTMDOM": ["SUPPEC"], "SDTMVAR": "ECREFID4"}, {"SDTMDOM": ["SUPPEC"], "SDTMVAR": "ECREFID5"}, {"SDTMDOM": ["SUPPEC"], "SDTMVAR": "ECROTOTH"}, {"SDTMDOM": ["EC"], "SDTMVAR": "ECROUTE"}, {"SDTMDOM": ["SUPPEC"], "SDTMVAR": "ECSCHDY"}, {"SDTMDOM": ["EC"], "SDTMVAR": "ECSEQ"}, {"SDTMDOM": ["EC"], "SDTMVAR": "ECSPID"}, {"SDTMDOM": ["SUPPEC"], "SDTMVAR": "ECSTDAY"}, {"SDTMDOM": ["EC"], "SDTMVAR": "ECSTDTC"}, {"SDTMDOM": ["EC"], "SDTMVAR": "ECSTDY"}, {"SDTMDOM": ["EC"], "SDTMVAR": "ECTPT"}, {"SDTMDOM": ["EC"], "SDTMVAR": "ECTPTNUM"}, {"SDTMDOM": ["EC"], "SDTMVAR": "ECTPTREF"}, {"SDTMDOM": ["SUPPEC"], "SDTMVAR": "ECTPTTM"}, {"SDTMDOM": ["EC"], "SDTMVAR": "ECTRT"}, {"SDTMDOM": ["SUPPEC"], "SDTMVAR": "ECTRTCMP"}, {"SDTMDOM": ["SUPPEC"], "SDTMVAR": "ECTRTV"}, {"SDTMDOM": ["EC"], "SDTMVAR": "ECVAMT"}, {"SDTMDOM": ["EC"], "SDTMVAR": "ECVAMTU"}, {"SDTMDOM": ["SUPPEG"], "SDTMVAR": "EGAENO"}, {"SDTMDOM": ["EG"], "SDTMVAR": "EGBLFL"}, {"SDTMDOM": ["EG"], "SDTMVAR": "EGCAT"}, {"SDTMDOM": ["SUPPEG"], "SDTMVAR": "EGCLSIG"}, {"SDTMDOM": ["SUPPEG"], "SDTMVAR": "EGCODEX"}, {"SDTMDOM": ["SUPPEG"], "SDTMVAR": "EGCOMPL"}, {"SDTMDOM": ["EG"], "SDTMVAR": "EGDRVFL"}, {"SDTMDOM": ["EG"], "SDTMVAR": "EGDTC"}, {"SDTMDOM": ["EG"], "SDTMVAR": "EGDUR"}, {"SDTMDOM": ["EG"], "SDTMVAR": "EGDY"}, {"SDTMDOM": ["EG"], "SDTMVAR": "EGELTM"}, {"SDTMDOM": ["EG"], "SDTMVAR": "EGENDTC"}, {"SDTMDOM": ["EG"], "SDTMVAR": "EGENDY"}, {"SDTMDOM": ["EG"], "SDTMVAR": "EGLEAD"}, {"SDTMDOM": ["EG"], "SDTMVAR": "EGMETHOD"}, {"SDTMDOM": ["EG"], "SDTMVAR": "EGNAM"}, {"SDTMDOM": ["EG"], "SDTMVAR": "EGORRES"}, {"SDTMDOM": ["EG"], "SDTMVAR": "EGORRESU"}, {"SDTMDOM": ["EG"], "SDTMVAR": "EGPOS"}, {"SDTMDOM": ["SUPPEG"], "SDTMVAR": "EGRDMETH "}, {"SDTMDOM": ["SUPPEG"], "SDTMVAR": "EGREAD"}, {"SDTMDOM": ["EG"], "SDTMVAR": "EGREFID"}, {"SDTMDOM": ["SUPPEG"], "SDTMVAR": "EGREPNUM"}, {"SDTMDOM": ["EG"], "SDTMVAR": "EGRFTDTC"}, {"SDTMDOM": ["EG"], "SDTMVAR": "EGSCAT"}, {"SDTMDOM": ["EG"], "SDTMVAR": "EGSEQ"}, {"SDTMDOM": ["SUPPEG"], "SDTMVAR": "EGSOUR"}, {"SDTMDOM": ["EG"], "SDTMVAR": "EGSPID"}, {"SDTMDOM": ["EG"], "SDTMVAR": "EGSTAT"}, {"SDTMDOM": ["EG"], "SDTMVAR": "EGSTRESC"}, {"SDTMDOM": ["EG"], "SDTMVAR": "EGSTRESN"}, {"SDTMDOM": ["EG"], "SDTMVAR": "EGSTRESU"}, {"SDTMDOM": ["EG"], "SDTMVAR": "EGTEST"}, {"SDTMDOM": ["EG"], "SDTMVAR": "EGTESTCD"}, {"SDTMDOM": ["EG"], "SDTMVAR": "EGTPT"}, {"SDTMDOM": ["EG"], "SDTMVAR": "EGTPTNUM"}, {"SDTMDOM": ["EG"], "SDTMVAR": "EGTPTREF"}, {"SDTMDOM": ["EG"], "SDTMVAR": "EGXFN"}, {"SDTMDOM": ["SE", "TA", "TE"], "SDTMVAR": "ELEMENT"}, {"SDTMDOM": ["AE", "AG", "CC", "CCLN", "CE", "CI", "CM", "CV", "DA", "DD", "DE", "DS", "DV", "EC", "EG", "EX", "FA", "FAAE", "FACE", "FAPR", "FARS", "FT", "HO", "IE", "IS", "LB", "LBUS", "MH", "MI", "MK", "ML", "MO", "NV", "OE", "PC", "PE", "PF", "PP", "PR", "QS", "QSCQ", "QSEG", "QSKN", "QSPI", "QSMR", "RE", "RP", "RS", "SE", "SR", "SS", "SU", "SV", "TA", "TR", "TU", "VS"], "SDTMVAR": "EPOCH"}, {"SDTMDOM": ["SE", "TA", "TE"], "SDTMVAR": "ETCD"}, {"SDTMDOM": ["DM"], "SDTMVAR": "ETHNIC"}, {"SDTMDOM": ["SUPPEX"], "SDTMVAR": "EXACCYN"}, {"SDTMDOM": ["EX"], "SDTMVAR": "EXADJ"}, {"SDTMDOM": ["SUPPEX"], "SDTMVAR": "EXBUT"}, {"SDTMDOM": ["SUPPEX"], "SDTMVAR": "EXBUTU"}, {"SDTMDOM": ["EX"], "SDTMVAR": "EXCAT"}, {"SDTMDOM": ["SUPPEX"], "SDTMVAR": "EXCM"}, {"SDTMDOM": ["EX"], "SDTMVAR": "EXDIR"}, {"SDTMDOM": ["SUPPEX"], "SDTMVAR": "EXDOSADJ"}, {"SDTMDOM": ["EX"], "SDTMVAR": "EXDOSE"}, {"SDTMDOM": ["EX"], "SDTMVAR": "EXDOSFRM"}, {"SDTMDOM": ["EX"], "SDTMVAR": "EXDOSFRQ"}, {"SDTMDOM": ["EX"], "SDTMVAR": "EXDOSRGM"}, {"SDTMDOM": ["EX"], "SDTMVAR": "EXDOSTXT"}, {"SDTMDOM": ["EX"], "SDTMVAR": "EXDOSU"}, {"SDTMDOM": ["EX"], "SDTMVAR": "EXELTM"}, {"SDTMDOM": ["SUPPEX"], "SDTMVAR": "EXENDAY"}, {"SDTMDOM": ["EX"], "SDTMVAR": "EXENDTC"}, {"SDTMDOM": ["EX"], "SDTMVAR": "EXENDY"}, {"SDTMDOM": ["EX"], "SDTMVAR": "EXENRF"}, {"SDTMDOM": ["EX"], "SDTMVAR": "EXENRTPT"}, {"SDTMDOM": ["SUPPEX"], "SDTMVAR": "EXENSCDY"}, {"SDTMDOM": ["EX"], "SDTMVAR": "EXENTPT"}, {"SDTMDOM": ["SUPPEX"], "SDTMVAR": "EXETPTTM"}, {"SDTMDOM": ["SUPPEX"], "SDTMVAR": "EXFLRT"}, {"SDTMDOM": ["SUPPEX"], "SDTMVAR": "EXFLRTU"}, {"SDTMDOM": ["EX"], "SDTMVAR": "EXGRPID"}, {"SDTMDOM": ["SUPPEX"], "SDTMVAR": "EXIMPNA"}, {"SDTMDOM": ["SUPPEX"], "SDTMVAR": "EXINT"}, {"SDTMDOM": ["SUPPEX"], "SDTMVAR": "EXINTDUR"}, {"SDTMDOM": ["EX"], "SDTMVAR": "EXLAT"}, {"SDTMDOM": ["EX"], "SDTMVAR": "EXLNKGRP"}, {"SDTMDOM": ["EX"], "SDTMVAR": "EXLNKID"}, {"SDTMDOM": ["EX"], "SDTMVAR": "EXLOC"}, {"SDTMDOM": ["SUPPEX"], "SDTMVAR": "EXLOCOTH"}, {"SDTMDOM": ["EX"], "SDTMVAR": "EXLOT"}, {"SDTMDOM": ["SUPPEX"], "SDTMVAR": "EXLOTLB"}, {"SDTMDOM": ["SUPPEX"], "SDTMVAR": "EXPERIOD"}, {"SDTMDOM": ["SUPPDM"], "SDTMVAR": "EXPOSED"}, {"SDTMDOM": ["EX"], "SDTMVAR": "EXREFID"}, {"SDTMDOM": ["SUPPEX"], "SDTMVAR": "EXREFID2"}, {"SDTMDOM": ["SUPPEX"], "SDTMVAR": "EXREFID3"}, {"SDTMDOM": ["SUPPEX"], "SDTMVAR": "EXREFID4"}, {"SDTMDOM": ["SUPPEX"], "SDTMVAR": "EXREFID5"}, {"SDTMDOM": ["SUPPEX"], "SDTMVAR": "EXROTOTH"}, {"SDTMDOM": ["EX"], "SDTMVAR": "EXROUTE"}, {"SDTMDOM": ["SUPPEX"], "SDTMVAR": "EXSCHDY"}, {"SDTMDOM": ["EX"], "SDTMVAR": "EXSEQ"}, {"SDTMDOM": ["EX"], "SDTMVAR": "EXSPID"}, {"SDTMDOM": ["SUPPEX"], "SDTMVAR": "EXSTDAY"}, {"SDTMDOM": ["EX"], "SDTMVAR": "EXSTDTC"}, {"SDTMDOM": ["EX"], "SDTMVAR": "EXSTDY"}, {"SDTMDOM": ["EX"], "SDTMVAR": "EXTPT"}, {"SDTMDOM": ["EX"], "SDTMVAR": "EXTPTNUM"}, {"SDTMDOM": ["EX"], "SDTMVAR": "EXTPTREF"}, {"SDTMDOM": ["SUPPEX"], "SDTMVAR": "EXTPTTM"}, {"SDTMDOM": ["EX"], "SDTMVAR": "EXTRT"}, {"SDTMDOM": ["SUPPEX"], "SDTMVAR": "EXTRTCMP"}, {"SDTMDOM": ["EX"], "SDTMVAR": "EXTRTV"}, {"SDTMDOM": ["EX"], "SDTMVAR": "EXVAMT"}, {"SDTMDOM": ["EX"], "SDTMVAR": "EXVAMTU"}, {"SDTMDOM": ["SUPPFAAE"], "SDTMVAR": "FAAENO"}, {"SDTMDOM": ["FA"], "SDTMVAR": "FABLFL"}, {"SDTMDOM": ["FA", "FAAE", "FACE", "FAPR", "FARS"], "SDTMVAR": "FACAT"}, {"SDTMDOM": ["SUPPFACE"], "SDTMVAR": "FACLSIG"}, {"SDTMDOM": ["FA"], "SDTMVAR": "FADRVFL"}, {"SDTMDOM": ["FA", "FACE"], "SDTMVAR": "FADTC"}, {"SDTMDOM": ["FA"], "SDTMVAR": "FADY"}, {"SDTMDOM": ["FA"], "SDTMVAR": "FAELTM"}, {"SDTMDOM": ["FA"], "SDTMVAR": "FAEVAL"}, {"SDTMDOM": ["FA"], "SDTMVAR": "FAGRPID"}, {"SDTMDOM": ["FA", "FACE", "FAPR"], "SDTMVAR": "FALAT"}, {"SDTMDOM": ["FA", "FAAE", "FACE", "FAPR", "FARS"], "SDTMVAR": "FALNKID"}, {"SDTMDOM": ["FA"], "SDTMVAR": "FALOC"}, {"SDTMDOM": ["FA", "FAAE", "FACE", "FAPR", "FARS"], "SDTMVAR": "FAOBJ"}, {"SDTMDOM": ["FA", "FAAE", "FACE", "FAPR", "FARS"], "SDTMVAR": "FAORRES"}, {"SDTMDOM": ["SUPPFA"], "SDTMVAR": "FAORRESN"}, {"SDTMDOM": ["FA", "FAAE", "FACE", "FAPR"], "SDTMVAR": "FAORRESU"}, {"SDTMDOM": ["FA"], "SDTMVAR": "FAREASND"}, {"SDTMDOM": ["FA", "FAAE", "FACE", "FAPR"], "SDTMVAR": "FAREFID"}, {"SDTMDOM": ["FA", "FARS"], "SDTMVAR": "FASCAT"}, {"SDTMDOM": ["FA", "FAAE", "FACE", "FAPR", "FARS"], "SDTMVAR": "FASEQ"}, {"SDTMDOM": ["FA", "FAAE", "FACE", "FAPR", "FARS"], "SDTMVAR": "FASPID"}, {"SDTMDOM": ["FA"], "SDTMVAR": "FASTAT"}, {"SDTMDOM": ["FA", "FAAE", "FACE", "FAPR", "FARS"], "SDTMVAR": "FASTRESC"}, {"SDTMDOM": ["FA", "FAAE", "FACE", "FAPR"], "SDTMVAR": "FASTRESN"}, {"SDTMDOM": ["FA", "FAAE", "FACE", "FAPR"], "SDTMVAR": "FASTRESU"}, {"SDTMDOM": ["FA"], "SDTMVAR": "FASTRTPT"}, {"SDTMDOM": ["FA"], "SDTMVAR": "FASTTPT"}, {"SDTMDOM": ["FA", "FAAE", "FACE", "FAPR", "FARS"], "SDTMVAR": "FATEST"}, {"SDTMDOM": ["FA", "FAAE", "FACE", "FAPR", "FARS"], "SDTMVAR": "FATESTCD"}, {"SDTMDOM": ["FA"], "SDTMVAR": "FATPT"}, {"SDTMDOM": ["FA"], "SDTMVAR": "FATPTNUM"}, {"SDTMDOM": ["FA"], "SDTMVAR": "FATPTREF"}, {"SDTMDOM": ["FT"], "SDTMVAR": "FTBLFL"}, {"SDTMDOM": ["FT"], "SDTMVAR": "FTCAT"}, {"SDTMDOM": ["FT"], "SDTMVAR": "FTDRVFL"}, {"SDTMDOM": ["FT"], "SDTMVAR": "FTDTC"}, {"SDTMDOM": ["FT"], "SDTMVAR": "FTDY"}, {"SDTMDOM": ["FT"], "SDTMVAR": "FTELTM"}, {"SDTMDOM": ["FT"], "SDTMVAR": "FTEVAL"}, {"SDTMDOM": ["FT"], "SDTMVAR": "FTGRPID"}, {"SDTMDOM": ["FT"], "SDTMVAR": "FTMETHOD"}, {"SDTMDOM": ["FT"], "SDTMVAR": "FTNAM"}, {"SDTMDOM": ["FT"], "SDTMVAR": "FTORRES"}, {"SDTMDOM": ["FT"], "SDTMVAR": "FTORRESU"}, {"SDTMDOM": ["FT"], "SDTMVAR": "FTPOS"}, {"SDTMDOM": ["FT"], "SDTMVAR": "FTREASND"}, {"SDTMDOM": ["FT"], "SDTMVAR": "FTREFID"}, {"SDTMDOM": ["SUPPFT"], "SDTMVAR": "FTREPNUM"}, {"SDTMDOM": ["FT"], "SDTMVAR": "FTRFTDTC"}, {"SDTMDOM": ["FT"], "SDTMVAR": "FTSCAT"}, {"SDTMDOM": ["FT"], "SDTMVAR": "FTSEQ"}, {"SDTMDOM": ["FT"], "SDTMVAR": "FTSPID"}, {"SDTMDOM": ["FT"], "SDTMVAR": "FTSTAT"}, {"SDTMDOM": ["FT"], "SDTMVAR": "FTSTRESC"}, {"SDTMDOM": ["FT"], "SDTMVAR": "FTSTRESN"}, {"SDTMDOM": ["FT"], "SDTMVAR": "FTSTRESU"}, {"SDTMDOM": ["FT"], "SDTMVAR": "FTTEST"}, {"SDTMDOM": ["FT"], "SDTMVAR": "FTTESTCD"}, {"SDTMDOM": ["FT"], "SDTMVAR": "FTTPT"}, {"SDTMDOM": ["FT"], "SDTMVAR": "FTTPTNUM"}, {"SDTMDOM": ["FT"], "SDTMVAR": "FTTPTREF"}, {"SDTMDOM": ["FT"], "SDTMVAR": "FTTSTDTL"}, {"SDTMDOM": ["SUPPHO"], "SDTMVAR": "HOAENO"}, {"SDTMDOM": ["HO"], "SDTMVAR": "HOCAT"}, {"SDTMDOM": ["HO"], "SDTMVAR": "HODECOD"}, {"SDTMDOM": ["HO"], "SDTMVAR": "HODTC"}, {"SDTMDOM": ["HO"], "SDTMVAR": "HODUR"}, {"SDTMDOM": ["HO"], "SDTMVAR": "HODY"}, {"SDTMDOM": ["HO"], "SDTMVAR": "HOENDTC"}, {"SDTMDOM": ["HO"], "SDTMVAR": "HOENDY"}, {"SDTMDOM": ["HO"], "SDTMVAR": "HOENRTPT"}, {"SDTMDOM": ["HO"], "SDTMVAR": "HOENTPT"}, {"SDTMDOM": ["HO"], "SDTMVAR": "HOGRPID"}, {"SDTMDOM": ["HO"], "SDTMVAR": "HOOCCUR"}, {"SDTMDOM": ["HO"], "SDTMVAR": "HOPRESP"}, {"SDTMDOM": ["SUPPHO"], "SDTMVAR": "HOPRNO"}, {"SDTMDOM": ["HO"], "SDTMVAR": "HOREASND"}, {"SDTMDOM": ["HO"], "SDTMVAR": "HOREFID"}, {"SDTMDOM": ["HO"], "SDTMVAR": "HOSCAT"}, {"SDTMDOM": ["HO"], "SDTMVAR": "HOSEQ"}, {"SDTMDOM": ["HO"], "SDTMVAR": "HOSPID"}, {"SDTMDOM": ["HO"], "SDTMVAR": "HOSTAT"}, {"SDTMDOM": ["HO"], "SDTMVAR": "HOSTDTC"}, {"SDTMDOM": ["HO"], "SDTMVAR": "HOSTDY"}, {"SDTMDOM": ["HO"], "SDTMVAR": "HOSTRTPT"}, {"SDTMDOM": ["HO"], "SDTMVAR": "HOSTTPT"}, {"SDTMDOM": ["HO"], "SDTMVAR": "HOTERM"}, {"SDTMDOM": ["CO", "RELREC"], "SDTMVAR": "IDVAR"}, {"SDTMDOM": ["CO", "RELREC"], "SDTMVAR": "IDVARVAL"}, {"SDTMDOM": ["IE", "TI"], "SDTMVAR": "IECAT"}, {"SDTMDOM": ["SUPPIE"], "SDTMVAR": "IECOVAL"}, {"SDTMDOM": ["IE"], "SDTMVAR": "IEORRES"}, {"SDTMDOM": ["IE", "TI"], "SDTMVAR": "IESCAT"}, {"SDTMDOM": ["IE"], "SDTMVAR": "IESEQ"}, {"SDTMDOM": ["IE"], "SDTMVAR": "IESTRESC"}, {"SDTMDOM": ["IE", "TI"], "SDTMVAR": "IETEST"}, {"SDTMDOM": ["IE", "LDV", "TI"], "SDTMVAR": "IETESTCD"}, {"SDTMDOM": ["SUPPDM", "SUPPIE"], "SDTMVAR": "IEVERS"}, {"SDTMDOM": ["DM"], "SDTMVAR": "INVID"}, {"SDTMDOM": ["DM"], "SDTMVAR": "INVNAM"}, {"SDTMDOM": ["IS"], "SDTMVAR": "ISBLFL"}, {"SDTMDOM": ["IS"], "SDTMVAR": "ISCAT"}, {"SDTMDOM": ["SUPPIS"], "SDTMVAR": "ISCOVAL"}, {"SDTMDOM": ["IS"], "SDTMVAR": "ISDTC"}, {"SDTMDOM": ["IS"], "SDTMVAR": "ISDY"}, {"SDTMDOM": ["IS"], "SDTMVAR": "ISGRPID"}, {"SDTMDOM": ["IS"], "SDTMVAR": "ISLLOQ"}, {"SDTMDOM": ["IS"], "SDTMVAR": "ISMETHOD"}, {"SDTMDOM": ["IS"], "SDTMVAR": "ISNAM"}, {"SDTMDOM": ["IS"], "SDTMVAR": "ISORRES"}, {"SDTMDOM": ["IS"], "SDTMVAR": "ISORRESU"}, {"SDTMDOM": ["SUPPIS"], "SDTMVAR": "ISPERIOD"}, {"SDTMDOM": ["IS"], "SDTMVAR": "ISREASND"}, {"SDTMDOM": ["IS"], "SDTMVAR": "ISREFID"}, {"SDTMDOM": ["SUPPIS"], "SDTMVAR": "ISREPNUM"}, {"SDTMDOM": ["IS"], "SDTMVAR": "ISSCAT"}, {"SDTMDOM": ["IS"], "SDTMVAR": "ISSEQ"}, {"SDTMDOM": ["IS"], "SDTMVAR": "ISSPCCND"}, {"SDTMDOM": ["IS"], "SDTMVAR": "ISSPEC"}, {"SDTMDOM": ["IS"], "SDTMVAR": "ISSPID"}, {"SDTMDOM": ["IS"], "SDTMVAR": "ISSTAT"}, {"SDTMDOM": ["IS"], "SDTMVAR": "ISSTRESC"}, {"SDTMDOM": ["IS"], "SDTMVAR": "ISSTRESN"}, {"SDTMDOM": ["IS"], "SDTMVAR": "ISSTRESU"}, {"SDTMDOM": ["SUPPIS"], "SDTMVAR": "ISTARGET"}, {"SDTMDOM": ["IS"], "SDTMVAR": "ISTEST"}, {"SDTMDOM": ["IS"], "SDTMVAR": "ISTESTCD"}, {"SDTMDOM": ["IS"], "SDTMVAR": "ISTPT"}, {"SDTMDOM": ["IS"], "SDTMVAR": "ISTPTNUM"}, {"SDTMDOM": ["IS"], "SDTMVAR": "ISTSTDTL"}, {"SDTMDOM": ["IS"], "SDTMVAR": "ISULOQ"}, {"SDTMDOM": ["SUPPDM"], "SDTMVAR": "ITT"}, {"SDTMDOM": ["SUPPLB"], "SDTMVAR": "LBACCYN"}, {"SDTMDOM": ["SUPPLB", "SUPPLBUS"], "SDTMVAR": "LBAENO"}, {"SDTMDOM": ["SUPPLB", "SUPPLBUS"], "SDTMVAR": "LBALRTFL"}, {"SDTMDOM": ["LB", "LBUS"], "SDTMVAR": "LBBLFL"}, {"SDTMDOM": ["LB", "LBUS"], "SDTMVAR": "LBCAT"}, {"SDTMDOM": ["SUPPLB", "SUPPLBUS"], "SDTMVAR": "LBCLMETH"}, {"SDTMDOM": ["SUPPLB", "SUPPLBUS"], "SDTMVAR": "LBCLSIG"}, {"SDTMDOM": ["SUPPLB"], "SDTMVAR": "LBCM"}, {"SDTMDOM": ["SUPPLB", "SUPPLBUS"], "SDTMVAR": "LBCOND"}, {"SDTMDOM": ["SUPPLB", "SUPPLBUS"], "SDTMVAR": "LBCONV"}, {"SDTMDOM": ["SUPPLB", "SUPPLBUS"], "SDTMVAR": "LBCOVAL"}, {"SDTMDOM": ["SUPPLB", "SUPPLBUS"], "SDTMVAR": "LBDICTV"}, {"SDTMDOM": ["SUPPLB", "SUPPLBUS"], "SDTMVAR": "LBDIGIT"}, {"SDTMDOM": ["LB", "LBUS"], "SDTMVAR": "LBDRVFL"}, {"SDTMDOM": ["LB", "LBUS"], "SDTMVAR": "LBDTC"}, {"SDTMDOM": ["LB", "LBUS"], "SDTMVAR": "LBDY"}, {"SDTMDOM": ["LB", "LBUS"], "SDTMVAR": "LBELTM"}, {"SDTMDOM": ["LB", "LBUS"], "SDTMVAR": "LBENDTC"}, {"SDTMDOM": ["LB", "LBUS"], "SDTMVAR": "LBENDY"}, {"SDTMDOM": ["LB", "LBUS"], "SDTMVAR": "LBENRTPT"}, {"SDTMDOM": ["LB", "LBUS"], "SDTMVAR": "LBENTPT"}, {"SDTMDOM": ["SUPPLB", "SUPPLBUS"], "SDTMVAR": "LBETPTNM"}, {"SDTMDOM": ["LB"], "SDTMVAR": "LBEVAL"}, {"SDTMDOM": ["LB", "LBUS"], "SDTMVAR": "LBFAST"}, {"SDTMDOM": ["LB", "LBUS"], "SDTMVAR": "LBGRPID"}, {"SDTMDOM": ["SUPPLB", "SUPPLBUS"], "SDTMVAR": "LBLIMSID"}, {"SDTMDOM": ["LB", "LBUS"], "SDTMVAR": "LBLNKID"}, {"SDTMDOM": ["LB", "LBUS"], "SDTMVAR": "LBLOINC"}, {"SDTMDOM": ["LB", "LBUS"], "SDTMVAR": "LBMETHOD"}, {"SDTMDOM": ["LB", "LBUS"], "SDTMVAR": "LBNAM"}, {"SDTMDOM": ["SUPPLB", "SUPPLBUS"], "SDTMVAR": "LBNOABN"}, {"SDTMDOM": ["LB", "LBUS"], "SDTMVAR": "LBNRIND"}, {"SDTMDOM": ["SUPPLB"], "SDTMVAR": "LBOREREA"}, {"SDTMDOM": ["SUPPLB"], "SDTMVAR": "LBORESSP"}, {"SDTMDOM": ["SUPPLB"], "SDTMVAR": "LBORESTK"}, {"SDTMDOM": ["LB", "LBUS"], "SDTMVAR": "LBORNRHI"}, {"SDTMDOM": ["LB", "LBUS"], "SDTMVAR": "LBORNRLO"}, {"SDTMDOM": ["LB", "LBUS"], "SDTMVAR": "LBORRES"}, {"SDTMDOM": ["LB", "LBUS"], "SDTMVAR": "LBORRESU"}, {"SDTMDOM": ["SUPPLB"], "SDTMVAR": "LBPROFID"}, {"SDTMDOM": ["SUPPLB", "SUPPLBUS"], "SDTMVAR": "LBRANTYP"}, {"SDTMDOM": ["LB", "LBUS"], "SDTMVAR": "LBREASND"}, {"SDTMDOM": ["LB", "LBUS"], "SDTMVAR": "LBREFID"}, {"SDTMDOM": ["LB", "LBUS"], "SDTMVAR": "LBRFTDTC"}, {"SDTMDOM": ["SUPPLB", "SUPPLBUS"], "SDTMVAR": "LBROWID"}, {"SDTMDOM": ["SUPPLB", "SUPPLBUS"], "SDTMVAR": "LBSAMID"}, {"SDTMDOM": ["LB", "LBUS"], "SDTMVAR": "LBSCAT"}, {"SDTMDOM": ["LB", "LBUS"], "SDTMVAR": "LBSEQ"}, {"SDTMDOM": ["SUPPLB", "SUPPLBUS"], "SDTMVAR": "LBSONRHI"}, {"SDTMDOM": ["SUPPLB", "SUPPLBUS"], "SDTMVAR": "LBSONRLO"}, {"SDTMDOM": ["LB", "LBUS"], "SDTMVAR": "LBSPCCND"}, {"SDTMDOM": ["LB", "LBUS"], "SDTMVAR": "LBSPEC"}, {"SDTMDOM": ["LB", "LBUS"], "SDTMVAR": "LBSPID"}, {"SDTMDOM": ["LB", "LBUS"], "SDTMVAR": "LBSTAT"}, {"SDTMDOM": ["LB", "LBUS"], "SDTMVAR": "LBSTNRC"}, {"SDTMDOM": ["LB", "LBUS"], "SDTMVAR": "LBSTNRHI"}, {"SDTMDOM": ["LB", "LBUS"], "SDTMVAR": "LBSTNRLO"}, {"SDTMDOM": ["LB", "LBUS"], "SDTMVAR": "LBSTRESC"}, {"SDTMDOM": ["LB", "LBUS"], "SDTMVAR": "LBSTRESN"}, {"SDTMDOM": ["LB", "LBUS"], "SDTMVAR": "LBSTRESU"}, {"SDTMDOM": ["SUPPLB", "SUPPLBUS"], "SDTMVAR": "LBTCOVAL"}, {"SDTMDOM": ["LB", "LBUS"], "SDTMVAR": "LBTEST"}, {"SDTMDOM": ["LB", "LBUS"], "SDTMVAR": "LBTESTCD"}, {"SDTMDOM": ["LB", "LBUS"], "SDTMVAR": "LBTOX"}, {"SDTMDOM": ["LB", "LBUS"], "SDTMVAR": "LBTOXGR"}, {"SDTMDOM": ["LB", "LBUS"], "SDTMVAR": "LBTPT"}, {"SDTMDOM": ["LB", "LBUS"], "SDTMVAR": "LBTPTNUM"}, {"SDTMDOM": ["LB", "LBUS"], "SDTMVAR": "LBTPTREF"}, {"SDTMDOM": ["SUPPLB", "SUPPLBUS"], "SDTMVAR": "LBTYPE"}, {"SDTMDOM": ["SUPPLB"], "SDTMVAR": "LBULOD"}, {"SDTMDOM": ["APMH", "MH"], "SDTMVAR": "MHBDSYCD"}, {"SDTMDOM": ["APMH", "MH"], "SDTMVAR": "MHBODSYS"}, {"SDTMDOM": ["APMH", "MH"], "SDTMVAR": "MHCAT"}, {"SDTMDOM": ["APMH", "MH"], "SDTMVAR": "MHDECOD"}, {"SDTMDOM": ["SUPPMH"], "SDTMVAR": "MHDICTV"}, {"SDTMDOM": ["MH"], "SDTMVAR": "MHENDTC"}, {"SDTMDOM": ["MH"], "SDTMVAR": "MHENDY"}, {"SDTMDOM": ["MH"], "SDTMVAR": "MHENRTPT"}, {"SDTMDOM": ["MH"], "SDTMVAR": "MHENTPT"}, {"SDTMDOM": ["SUPPMH"], "SDTMVAR": "MHEVDTYP"}, {"SDTMDOM": ["MH"], "SDTMVAR": "MHEVINTX"}, {"SDTMDOM": ["APMH", "MH"], "SDTMVAR": "MHHLGT"}, {"SDTMDOM": ["APMH", "MH"], "SDTMVAR": "MHHLGTCD"}, {"SDTMDOM": ["APMH", "MH"], "SDTMVAR": "MHHLT"}, {"SDTMDOM": ["APMH", "MH"], "SDTMVAR": "MHHLTCD"}, {"SDTMDOM": ["APMH", "MH"], "SDTMVAR": "MHLLT"}, {"SDTMDOM": ["APMH", "MH"], "SDTMVAR": "MHLLTCD"}, {"SDTMDOM": ["MH"], "SDTMVAR": "MHLNKID"}, {"SDTMDOM": ["MH"], "SDTMVAR": "MHLOC"}, {"SDTMDOM": ["SUPPMH"], "SDTMVAR": "MHLOCOTH"}, {"SDTMDOM": ["APMH", "MH"], "SDTMVAR": "MHOCCUR"}, {"SDTMDOM": ["APMH", "MH"], "SDTMVAR": "MHPRESP"}, {"SDTMDOM": ["APMH", "MH"], "SDTMVAR": "MHPTCD"}, {"SDTMDOM": ["MH"], "SDTMVAR": "MHSCAT"}, {"SDTMDOM": ["APMH", "MH"], "SDTMVAR": "MHSEQ"}, {"SDTMDOM": ["APMH", "MH"], "SDTMVAR": "MHSOC"}, {"SDTMDOM": ["APMH", "MH"], "SDTMVAR": "MHSOCCD"}, {"SDTMDOM": ["APMH", "MH"], "SDTMVAR": "MHSPID"}, {"SDTMDOM": ["APMH", "MH"], "SDTMVAR": "MHSTAT"}, {"SDTMDOM": ["MH"], "SDTMVAR": "MHSTDTC"}, {"SDTMDOM": ["MH"], "SDTMVAR": "MHSTDY"}, {"SDTMDOM": ["APMH", "MH"], "SDTMVAR": "MHTERM"}, {"SDTMDOM": ["MI"], "SDTMVAR": "MIBLFL"}, {"SDTMDOM": ["MI"], "SDTMVAR": "MICAT"}, {"SDTMDOM": ["MI"], "SDTMVAR": "MIDTC"}, {"SDTMDOM": ["MI"], "SDTMVAR": "MIDY"}, {"SDTMDOM": ["MI"], "SDTMVAR": "MILOC"}, {"SDTMDOM": ["MI"], "SDTMVAR": "MIMETHOD"}, {"SDTMDOM": ["MI"], "SDTMVAR": "MIORRES"}, {"SDTMDOM": ["MI"], "SDTMVAR": "MIORRESU"}, {"SDTMDOM": ["MI"], "SDTMVAR": "MISCAT"}, {"SDTMDOM": ["MI"], "SDTMVAR": "MISEQ"}, {"SDTMDOM": ["MI"], "SDTMVAR": "MISPCCND"}, {"SDTMDOM": ["MI"], "SDTMVAR": "MISPEC"}, {"SDTMDOM": ["MI"], "SDTMVAR": "MISPID"}, {"SDTMDOM": ["MI"], "SDTMVAR": "MISTAT"}, {"SDTMDOM": ["MI"], "SDTMVAR": "MISTRESC"}, {"SDTMDOM": ["MI"], "SDTMVAR": "MISTRESN"}, {"SDTMDOM": ["MI"], "SDTMVAR": "MISTRESU"}, {"SDTMDOM": ["MI"], "SDTMVAR": "MITEST"}, {"SDTMDOM": ["MI"], "SDTMVAR": "MITESTCD"}, {"SDTMDOM": ["MI"], "SDTMVAR": "MITSTDTL"}, {"SDTMDOM": ["MK"], "SDTMVAR": "MKBLFL"}, {"SDTMDOM": ["MK"], "SDTMVAR": "MKCAT"}, {"SDTMDOM": ["MK"], "SDTMVAR": "MKDIR"}, {"SDTMDOM": ["MK"], "SDTMVAR": "MKDRVFL"}, {"SDTMDOM": ["MK"], "SDTMVAR": "MKDTC"}, {"SDTMDOM": ["MK"], "SDTMVAR": "MKDY"}, {"SDTMDOM": ["MK"], "SDTMVAR": "MKELTM"}, {"SDTMDOM": ["MK"], "SDTMVAR": "MKEVAL"}, {"SDTMDOM": ["MK"], "SDTMVAR": "MKEVALID"}, {"SDTMDOM": ["MK"], "SDTMVAR": "MKGRPID"}, {"SDTMDOM": ["MK"], "SDTMVAR": "MKLAT"}, {"SDTMDOM": ["MK"], "SDTMVAR": "MKLNKGRP"}, {"SDTMDOM": ["MK"], "SDTMVAR": "MKLNKID"}, {"SDTMDOM": ["MK"], "SDTMVAR": "MKLOC"}, {"SDTMDOM": ["MK"], "SDTMVAR": "MKMETHOD"}, {"SDTMDOM": ["MK"], "SDTMVAR": "MKORRES"}, {"SDTMDOM": ["MK"], "SDTMVAR": "MKPOS"}, {"SDTMDOM": ["MK"], "SDTMVAR": "MKREASND"}, {"SDTMDOM": ["MK"], "SDTMVAR": "MKREFID"}, {"SDTMDOM": ["MK"], "SDTMVAR": "MKRFTDTC"}, {"SDTMDOM": ["MK"], "SDTMVAR": "MKSCAT"}, {"SDTMDOM": ["MK"], "SDTMVAR": "MKSEQ"}, {"SDTMDOM": ["MK"], "SDTMVAR": "MKSPID"}, {"SDTMDOM": ["MK"], "SDTMVAR": "MKSTAT"}, {"SDTMDOM": ["MK"], "SDTMVAR": "MKSTRESC"}, {"SDTMDOM": ["MK"], "SDTMVAR": "MKSTRESN"}, {"SDTMDOM": ["MK"], "SDTMVAR": "MKTEST"}, {"SDTMDOM": ["MK"], "SDTMVAR": "MKTESTCD"}, {"SDTMDOM": ["MK"], "SDTMVAR": "MKTPT"}, {"SDTMDOM": ["MK"], "SDTMVAR": "MKTPTNUM"}, {"SDTMDOM": ["MK"], "SDTMVAR": "MKTPTREF"}, {"SDTMDOM": ["ML"], "SDTMVAR": "MLCAT"}, {"SDTMDOM": ["ML"], "SDTMVAR": "MLDOSE"}, {"SDTMDOM": ["ML"], "SDTMVAR": "MLDOSTXT"}, {"SDTMDOM": ["ML"], "SDTMVAR": "MLDOSU"}, {"SDTMDOM": ["ML"], "SDTMVAR": "MLELTM"}, {"SDTMDOM": ["ML"], "SDTMVAR": "MLENDTC"}, {"SDTMDOM": ["ML"], "SDTMVAR": "MLENDY"}, {"SDTMDOM": ["ML"], "SDTMVAR": "MLLNKID"}, {"SDTMDOM": ["ML"], "SDTMVAR": "MLOCCUR"}, {"SDTMDOM": ["ML"], "SDTMVAR": "MLPRESP"}, {"SDTMDOM": ["ML"], "SDTMVAR": "MLSCAT"}, {"SDTMDOM": ["ML"], "SDTMVAR": "MLSEQ"}, {"SDTMDOM": ["ML"], "SDTMVAR": "MLSTAT"}, {"SDTMDOM": ["ML"], "SDTMVAR": "MLSTDTC"}, {"SDTMDOM": ["ML"], "SDTMVAR": "MLSTDY"}, {"SDTMDOM": ["ML"], "SDTMVAR": "MLSTRTPT"}, {"SDTMDOM": ["ML"], "SDTMVAR": "MLSTTPT"}, {"SDTMDOM": ["ML"], "SDTMVAR": "MLTPT"}, {"SDTMDOM": ["ML"], "SDTMVAR": "MLTPTNUM"}, {"SDTMDOM": ["ML"], "SDTMVAR": "MLTPTREF"}, {"SDTMDOM": ["ML"], "SDTMVAR": "MLTRT"}, {"SDTMDOM": ["MO"], "SDTMVAR": "MOANMETH"}, {"SDTMDOM": ["MO"], "SDTMVAR": "MOBLFL"}, {"SDTMDOM": ["MO"], "SDTMVAR": "MOCAT"}, {"SDTMDOM": ["SUPPMO"], "SDTMVAR": "MOCLSIG"}, {"SDTMDOM": ["SUPPMO"], "SDTMVAR": "MOCLSIGC"}, {"SDTMDOM": ["MO"], "SDTMVAR": "MODIR"}, {"SDTMDOM": ["MO"], "SDTMVAR": "MODRVFL"}, {"SDTMDOM": ["MO"], "SDTMVAR": "MODTC"}, {"SDTMDOM": ["MO"], "SDTMVAR": "MODY"}, {"SDTMDOM": ["MO"], "SDTMVAR": "MOELTM"}, {"SDTMDOM": ["MO"], "SDTMVAR": "MOEVAL"}, {"SDTMDOM": ["MO"], "SDTMVAR": "MOGRPID"}, {"SDTMDOM": ["MO"], "SDTMVAR": "MOLAT"}, {"SDTMDOM": ["MO"], "SDTMVAR": "MOLNKID"}, {"SDTMDOM": ["MO"], "SDTMVAR": "MOLOC"}, {"SDTMDOM": ["MO"], "SDTMVAR": "MOMETHOD"}, {"SDTMDOM": ["SUPPMO"], "SDTMVAR": "MOMETOTH"}, {"SDTMDOM": ["MO"], "SDTMVAR": "MONAM"}, {"SDTMDOM": ["MO"], "SDTMVAR": "MOORRES"}, {"SDTMDOM": ["MO"], "SDTMVAR": "MOORRESU"}, {"SDTMDOM": ["MO"], "SDTMVAR": "MOPORTOT"}, {"SDTMDOM": ["MO"], "SDTMVAR": "MOPOS"}, {"SDTMDOM": ["MO"], "SDTMVAR": "MOREASND"}, {"SDTMDOM": ["MO"], "SDTMVAR": "MOREFID"}, {"SDTMDOM": ["MO"], "SDTMVAR": "MORFTDTC"}, {"SDTMDOM": ["MO"], "SDTMVAR": "MOSCAT"}, {"SDTMDOM": ["MO"], "SDTMVAR": "MOSEQ"}, {"SDTMDOM": ["MO"], "SDTMVAR": "MOSPID"}, {"SDTMDOM": ["MO"], "SDTMVAR": "MOSTAT"}, {"SDTMDOM": ["MO"], "SDTMVAR": "MOSTRESC"}, {"SDTMDOM": ["MO"], "SDTMVAR": "MOSTRESN"}, {"SDTMDOM": ["MO"], "SDTMVAR": "MOSTRESU"}, {"SDTMDOM": ["MO"], "SDTMVAR": "MOTEST"}, {"SDTMDOM": ["MO"], "SDTMVAR": "MOTESTCD"}, {"SDTMDOM": ["MO"], "SDTMVAR": "MOTPT"}, {"SDTMDOM": ["MO"], "SDTMVAR": "MOTPTNUM"}, {"SDTMDOM": ["MO"], "SDTMVAR": "MOTPTREF"}, {"SDTMDOM": ["MO"], "SDTMVAR": "MOXFN"}, {"SDTMDOM": ["NV"], "SDTMVAR": "NVBLFL"}, {"SDTMDOM": ["NV"], "SDTMVAR": "NVCAT"}, {"SDTMDOM": ["NV"], "SDTMVAR": "NVDIR"}, {"SDTMDOM": ["NV"], "SDTMVAR": "NVDRVFL"}, {"SDTMDOM": ["NV"], "SDTMVAR": "NVDTC"}, {"SDTMDOM": ["NV"], "SDTMVAR": "NVDY"}, {"SDTMDOM": ["NV"], "SDTMVAR": "NVELTM"}, {"SDTMDOM": ["NV"], "SDTMVAR": "NVEVAL"}, {"SDTMDOM": ["NV"], "SDTMVAR": "NVGRPID"}, {"SDTMDOM": ["NV"], "SDTMVAR": "NVLAT"}, {"SDTMDOM": ["NV"], "SDTMVAR": "NVLNKID"}, {"SDTMDOM": ["NV"], "SDTMVAR": "NVLOC"}, {"SDTMDOM": ["NV"], "SDTMVAR": "NVMETHOD"}, {"SDTMDOM": ["NV"], "SDTMVAR": "NVORRES"}, {"SDTMDOM": ["NV"], "SDTMVAR": "NVORRESU"}, {"SDTMDOM": ["NV"], "SDTMVAR": "NVREASND"}, {"SDTMDOM": ["NV"], "SDTMVAR": "NVREFID"}, {"SDTMDOM": ["NV"], "SDTMVAR": "NVRFTDTC"}, {"SDTMDOM": ["NV"], "SDTMVAR": "NVSCAT"}, {"SDTMDOM": ["NV"], "SDTMVAR": "NVSEQ"}, {"SDTMDOM": ["NV"], "SDTMVAR": "NVSPID"}, {"SDTMDOM": ["NV"], "SDTMVAR": "NVSTAT"}, {"SDTMDOM": ["NV"], "SDTMVAR": "NVSTRESC"}, {"SDTMDOM": ["NV"], "SDTMVAR": "NVSTRESN"}, {"SDTMDOM": ["NV"], "SDTMVAR": "NVSTRESU"}, {"SDTMDOM": ["NV"], "SDTMVAR": "NVTEST"}, {"SDTMDOM": ["NV"], "SDTMVAR": "NVTESTCD"}, {"SDTMDOM": ["NV"], "SDTMVAR": "NVTPT"}, {"SDTMDOM": ["NV"], "SDTMVAR": "NVTPTNUM"}, {"SDTMDOM": ["NV"], "SDTMVAR": "NVTPTREF"}, {"SDTMDOM": ["OE"], "SDTMVAR": "OEACPTFL"}, {"SDTMDOM": ["OE"], "SDTMVAR": "OEBLFL"}, {"SDTMDOM": ["OE"], "SDTMVAR": "OECAT"}, {"SDTMDOM": ["OE"], "SDTMVAR": "OEDIR"}, {"SDTMDOM": ["OE"], "SDTMVAR": "OEDRVFL"}, {"SDTMDOM": ["OE"], "SDTMVAR": "OEDTC"}, {"SDTMDOM": ["OE"], "SDTMVAR": "OEDY"}, {"SDTMDOM": ["OE"], "SDTMVAR": "OEEVAL"}, {"SDTMDOM": ["OE"], "SDTMVAR": "OEEVALID"}, {"SDTMDOM": ["OE"], "SDTMVAR": "OEGRPID"}, {"SDTMDOM": ["OE"], "SDTMVAR": "OELAT"}, {"SDTMDOM": ["OE"], "SDTMVAR": "OELNKID"}, {"SDTMDOM": ["OE"], "SDTMVAR": "OELOC"}, {"SDTMDOM": ["OE"], "SDTMVAR": "OEMETHOD"}, {"SDTMDOM": ["OE"], "SDTMVAR": "OENRIND"}, {"SDTMDOM": ["OE"], "SDTMVAR": "OEORNRHI"}, {"SDTMDOM": ["OE"], "SDTMVAR": "OEORNRLO"}, {"SDTMDOM": ["OE"], "SDTMVAR": "OEORRES"}, {"SDTMDOM": ["OE"], "SDTMVAR": "OEORRESU"}, {"SDTMDOM": ["OE"], "SDTMVAR": "OEPORTOT"}, {"SDTMDOM": ["OE"], "SDTMVAR": "OEREASND"}, {"SDTMDOM": ["SUPPOE"], "SDTMVAR": "OEREPNUM"}, {"SDTMDOM": ["OE"], "SDTMVAR": "OERESCAT"}, {"SDTMDOM": ["OE"], "SDTMVAR": "OERUNID"}, {"SDTMDOM": ["OE"], "SDTMVAR": "OESCAT"}, {"SDTMDOM": ["OE"], "SDTMVAR": "OESEQ"}, {"SDTMDOM": ["SUPPOE"], "SDTMVAR": "OESP"}, {"SDTMDOM": ["OE"], "SDTMVAR": "OESTAT"}, {"SDTMDOM": ["OE"], "SDTMVAR": "OESTNRC"}, {"SDTMDOM": ["OE"], "SDTMVAR": "OESTNRHI"}, {"SDTMDOM": ["OE"], "SDTMVAR": "OESTNRLO"}, {"SDTMDOM": ["OE"], "SDTMVAR": "OESTRESC"}, {"SDTMDOM": ["OE"], "SDTMVAR": "OESTRESN"}, {"SDTMDOM": ["OE"], "SDTMVAR": "OESTRESU"}, {"SDTMDOM": ["OE"], "SDTMVAR": "OETEST"}, {"SDTMDOM": ["OE"], "SDTMVAR": "OETESTCD"}, {"SDTMDOM": ["OE"], "SDTMVAR": "OETPT"}, {"SDTMDOM": ["OE"], "SDTMVAR": "OETPTNUM"}, {"SDTMDOM": ["OE"], "SDTMVAR": "OETPTREF"}, {"SDTMDOM": ["OE"], "SDTMVAR": "OETSTDTL"}, {"SDTMDOM": ["OE"], "SDTMVAR": "OEXFN"}, {"SDTMDOM": ["PC"], "SDTMVAR": "PCCAT"}, {"SDTMDOM": ["PC"], "SDTMVAR": "PCDRVFL"}, {"SDTMDOM": ["PC"], "SDTMVAR": "PCDTC"}, {"SDTMDOM": ["PC"], "SDTMVAR": "PCDY"}, {"SDTMDOM": ["PC"], "SDTMVAR": "PCELTM"}, {"SDTMDOM": ["PC"], "SDTMVAR": "PCENDTC"}, {"SDTMDOM": ["PC"], "SDTMVAR": "PCENDY"}, {"SDTMDOM": ["PC"], "SDTMVAR": "PCENRTPT"}, {"SDTMDOM": ["PC"], "SDTMVAR": "PCENTPT"}, {"SDTMDOM": ["PC"], "SDTMVAR": "PCEVLINT"}, {"SDTMDOM": ["PC"], "SDTMVAR": "PCFAST"}, {"SDTMDOM": ["PC"], "SDTMVAR": "PCGRPID"}, {"SDTMDOM": ["PC"], "SDTMVAR": "PCLLOQ"}, {"SDTMDOM": ["PC"], "SDTMVAR": "PCMETHOD"}, {"SDTMDOM": ["PC"], "SDTMVAR": "PCNAM"}, {"SDTMDOM": ["PC"], "SDTMVAR": "PCORRES"}, {"SDTMDOM": ["PC"], "SDTMVAR": "PCORRESU"}, {"SDTMDOM": ["SUPPPC"], "SDTMVAR": "PCPERIOD"}, {"SDTMDOM": ["PC"], "SDTMVAR": "PCREASND"}, {"SDTMDOM": ["PC"], "SDTMVAR": "PCREFID"}, {"SDTMDOM": ["PC"], "SDTMVAR": "PCRFTDTC"}, {"SDTMDOM": ["PC"], "SDTMVAR": "PCSCAT"}, {"SDTMDOM": ["PC"], "SDTMVAR": "PCSEQ"}, {"SDTMDOM": ["PC"], "SDTMVAR": "PCSPCCND"}, {"SDTMDOM": ["PC"], "SDTMVAR": "PCSPEC"}, {"SDTMDOM": ["PC"], "SDTMVAR": "PCSPID"}, {"SDTMDOM": ["PC"], "SDTMVAR": "PCSTAT"}, {"SDTMDOM": ["PC"], "SDTMVAR": "PCSTRESC"}, {"SDTMDOM": ["PC"], "SDTMVAR": "PCSTRESN"}, {"SDTMDOM": ["PC"], "SDTMVAR": "PCSTRESU"}, {"SDTMDOM": ["PC"], "SDTMVAR": "PCTEST"}, {"SDTMDOM": ["PC"], "SDTMVAR": "PCTESTCD"}, {"SDTMDOM": ["PC"], "SDTMVAR": "PCTPT"}, {"SDTMDOM": ["PC"], "SDTMVAR": "PCTPTNUM"}, {"SDTMDOM": ["PC"], "SDTMVAR": "PCTPTREF"}, {"SDTMDOM": ["PC"], "SDTMVAR": "PCULOQ"}, {"SDTMDOM": ["SUPPDM"], "SDTMVAR": "PDPOP"}, {"SDTMDOM": ["SUPPPE"], "SDTMVAR": "PEAENO"}, {"SDTMDOM": ["PE"], "SDTMVAR": "PECAT"}, {"SDTMDOM": ["SUPPPE"], "SDTMVAR": "PECLSIG"}, {"SDTMDOM": ["PE"], "SDTMVAR": "PEDTC"}, {"SDTMDOM": ["PE"], "SDTMVAR": "PEDY"}, {"SDTMDOM": ["PE"], "SDTMVAR": "PEORRES"}, {"SDTMDOM": ["PE"], "SDTMVAR": "PEREASND"}, {"SDTMDOM": ["PE"], "SDTMVAR": "PESCAT "}, {"SDTMDOM": ["PE"], "SDTMVAR": "PESEQ"}, {"SDTMDOM": ["PE"], "SDTMVAR": "PESPID"}, {"SDTMDOM": ["PE"], "SDTMVAR": "PESTAT"}, {"SDTMDOM": ["PE"], "SDTMVAR": "PESTRESC"}, {"SDTMDOM": ["PE"], "SDTMVAR": "PETEST"}, {"SDTMDOM": ["PE"], "SDTMVAR": "PETESTCD"}, {"SDTMDOM": ["PF"], "SDTMVAR": "PFBLFL"}, {"SDTMDOM": ["PF"], "SDTMVAR": "PFCAT"}, {"SDTMDOM": ["PF"], "SDTMVAR": "PFDRVFL"}, {"SDTMDOM": ["PF"], "SDTMVAR": "PFDTC"}, {"SDTMDOM": ["PF"], "SDTMVAR": "PFDY"}, {"SDTMDOM": ["PF"], "SDTMVAR": "PFELTM"}, {"SDTMDOM": ["SUPPPF"], "SDTMVAR": "PFGENLOC"}, {"SDTMDOM": ["SUPPPF"], "SDTMVAR": "PFGENRI"}, {"SDTMDOM": ["PF"], "SDTMVAR": "PFGENSR"}, {"SDTMDOM": ["SUPPPF"], "SDTMVAR": "PFGENTYP"}, {"SDTMDOM": ["PF"], "SDTMVAR": "PFLNKID"}, {"SDTMDOM": ["PF"], "SDTMVAR": "PFMETHOD"}, {"SDTMDOM": ["SUPPPF"], "SDTMVAR": "PFMUTYP"}, {"SDTMDOM": ["PF"], "SDTMVAR": "PFNAM"}, {"SDTMDOM": ["SUPPPF"], "SDTMVAR": "PFNSPCES"}, {"SDTMDOM": ["SUPPPF"], "SDTMVAR": "PFNSTRN"}, {"SDTMDOM": ["SUPPPF"], "SDTMVAR": "PFORREF"}, {"SDTMDOM": ["PF"], "SDTMVAR": "PFORRES"}, {"SDTMDOM": ["PF"], "SDTMVAR": "PFORRESU"}, {"SDTMDOM": ["SUPPPF"], "SDTMVAR": "PFPPTYP"}, {"SDTMDOM": ["PF"], "SDTMVAR": "PFREASND"}, {"SDTMDOM": ["PF"], "SDTMVAR": "PFREFID"}, {"SDTMDOM": ["SUPPPF"], "SDTMVAR": "PFREFSEQ"}, {"SDTMDOM": ["PF"], "SDTMVAR": "PFRESCAT"}, {"SDTMDOM": ["PF"], "SDTMVAR": "PFRFTDTC"}, {"SDTMDOM": ["PF"], "SDTMVAR": "PFSCAT"}, {"SDTMDOM": ["PF"], "SDTMVAR": "PFSEQ"}, {"SDTMDOM": ["PF"], "SDTMVAR": "PFSPEC"}, {"SDTMDOM": ["PF"], "SDTMVAR": "PFSPID"}, {"SDTMDOM": ["PF"], "SDTMVAR": "PFSTAT"}, {"SDTMDOM": ["PF"], "SDTMVAR": "PFSTRESC"}, {"SDTMDOM": ["PF"], "SDTMVAR": "PFSTRESN"}, {"SDTMDOM": ["PF"], "SDTMVAR": "PFSTRESU"}, {"SDTMDOM": ["PF"], "SDTMVAR": "PFTEST"}, {"SDTMDOM": ["PF"], "SDTMVAR": "PFTESTCD"}, {"SDTMDOM": ["PF"], "SDTMVAR": "PFTPT"}, {"SDTMDOM": ["PF"], "SDTMVAR": "PFTPTNUM"}, {"SDTMDOM": ["PF"], "SDTMVAR": "PFTPTREF"}, {"SDTMDOM": ["PF"], "SDTMVAR": "PFTSTDTL"}, {"SDTMDOM": ["PF"], "SDTMVAR": "PFXFN"}, {"SDTMDOM": ["SUPPDM"], "SDTMVAR": "PGPOP"}, {"SDTMDOM": ["SUPPDM"], "SDTMVAR": "PKPDPOP"}, {"SDTMDOM": ["SUPPDM"], "SDTMVAR": "PKPOP"}, {"SDTMDOM": ["PP"], "SDTMVAR": "PPCAT"}, {"SDTMDOM": ["PP"], "SDTMVAR": "PPENINT"}, {"SDTMDOM": ["PP"], "SDTMVAR": "PPGRPID"}, {"SDTMDOM": ["PP"], "SDTMVAR": "PPORRES"}, {"SDTMDOM": ["PP"], "SDTMVAR": "PPORRESU"}, {"SDTMDOM": ["SUPPPP"], "SDTMVAR": "PPPERIOD"}, {"SDTMDOM": ["PP"], "SDTMVAR": "PPREASND"}, {"SDTMDOM": ["PP"], "SDTMVAR": "PPRFTDTC"}, {"SDTMDOM": ["SUPPDM"], "SDTMVAR": "PPROT"}, {"SDTMDOM": ["PP"], "SDTMVAR": "PPSCAT"}, {"SDTMDOM": ["PP"], "SDTMVAR": "PPSEQ"}, {"SDTMDOM": ["PP"], "SDTMVAR": "PPSPEC"}, {"SDTMDOM": ["PP"], "SDTMVAR": "PPSTAT"}, {"SDTMDOM": ["PP"], "SDTMVAR": "PPSTINT"}, {"SDTMDOM": ["PP"], "SDTMVAR": "PPSTRESC"}, {"SDTMDOM": ["PP"], "SDTMVAR": "PPSTRESN"}, {"SDTMDOM": ["PP"], "SDTMVAR": "PPSTRESU"}, {"SDTMDOM": ["PP"], "SDTMVAR": "PPTEST"}, {"SDTMDOM": ["PP"], "SDTMVAR": "PPTESTCD"}, {"SDTMDOM": ["SUPPPR"], "SDTMVAR": "PRAENO"}, {"SDTMDOM": ["SUPPPR"], "SDTMVAR": "PRANA"}, {"SDTMDOM": ["SUPPPR"], "SDTMVAR": "PRBDSYCD"}, {"SDTMDOM": ["SUPPPR"], "SDTMVAR": "PRBODSYS"}, {"SDTMDOM": ["PR"], "SDTMVAR": "PRCAT"}, {"SDTMDOM": ["PR"], "SDTMVAR": "PRDECOD"}, {"SDTMDOM": ["SUPPPR"], "SDTMVAR": "PRDECOD2"}, {"SDTMDOM": ["SUPPPR"], "SDTMVAR": "PRDICTV"}, {"SDTMDOM": ["SUPPPR"], "SDTMVAR": "PRDICTV2"}, {"SDTMDOM": ["PR"], "SDTMVAR": "PRDOSE"}, {"SDTMDOM": ["PR"], "SDTMVAR": "PRDOSTXT"}, {"SDTMDOM": ["PR"], "SDTMVAR": "PRDOSU"}, {"SDTMDOM": ["PR"], "SDTMVAR": "PRELTM"}, {"SDTMDOM": ["PR"], "SDTMVAR": "PRENDTC"}, {"SDTMDOM": ["PR"], "SDTMVAR": "PRENDY"}, {"SDTMDOM": ["PR"], "SDTMVAR": "PRENRF"}, {"SDTMDOM": ["PR"], "SDTMVAR": "PRENRTPT"}, {"SDTMDOM": ["PR"], "SDTMVAR": "PRENTPT"}, {"SDTMDOM": ["SUPPPR"], "SDTMVAR": "PRHLGT"}, {"SDTMDOM": ["SUPPPR"], "SDTMVAR": "PRHLGTCD"}, {"SDTMDOM": ["SUPPPR"], "SDTMVAR": "PRHLT"}, {"SDTMDOM": ["SUPPPR"], "SDTMVAR": "PRHLTCD"}, {"SDTMDOM": ["PR"], "SDTMVAR": "PRINDC"}, {"SDTMDOM": ["SUPPPR"], "SDTMVAR": "PRINDC1"}, {"SDTMDOM": ["SUPPPR"], "SDTMVAR": "PRINDC2"}, {"SDTMDOM": ["SUPPPR"], "SDTMVAR": "PRINDC3"}, {"SDTMDOM": ["SUPPPR"], "SDTMVAR": "PRINDC4"}, {"SDTMDOM": ["SUPPPR"], "SDTMVAR": "PRINDC5"}, {"SDTMDOM": ["SUPPPR"], "SDTMVAR": "PRISO"}, {"SDTMDOM": ["SUPPPR"], "SDTMVAR": "PRLLT"}, {"SDTMDOM": ["SUPPPR"], "SDTMVAR": "PRLLTCD"}, {"SDTMDOM": ["PR"], "SDTMVAR": "PRLNKID"}, {"SDTMDOM": ["PR"], "SDTMVAR": "PRLOC"}, {"SDTMDOM": ["SUPPPR"], "SDTMVAR": "PRMHNO"}, {"SDTMDOM": ["PR"], "SDTMVAR": "PROCCUR"}, {"SDTMDOM": ["PR"], "SDTMVAR": "PRPRESP"}, {"SDTMDOM": ["SUPPPR"], "SDTMVAR": "PRPTCD"}, {"SDTMDOM": ["SUPPPR"], "SDTMVAR": "PRRECNO"}, {"SDTMDOM": ["PR"], "SDTMVAR": "PRREFID"}, {"SDTMDOM": ["PR"], "SDTMVAR": "PRSCAT"}, {"SDTMDOM": ["PR"], "SDTMVAR": "PRSEQ"}, {"SDTMDOM": ["SUPPPR"], "SDTMVAR": "PRSEQ1"}, {"SDTMDOM": ["SUPPPR"], "SDTMVAR": "PRSEQ2"}, {"SDTMDOM": ["SUPPPR"], "SDTMVAR": "PRSOC"}, {"SDTMDOM": ["SUPPPR"], "SDTMVAR": "PRSOCCD"}, {"SDTMDOM": ["SUPPPR"], "SDTMVAR": "PRSPEC"}, {"SDTMDOM": ["SUPPPR"], "SDTMVAR": "PRSPEOTH"}, {"SDTMDOM": ["PR"], "SDTMVAR": "PRSPID"}, {"SDTMDOM": ["PR"], "SDTMVAR": "PRSTAT"}, {"SDTMDOM": ["PR"], "SDTMVAR": "PRSTDTC"}, {"SDTMDOM": ["PR"], "SDTMVAR": "PRSTDY"}, {"SDTMDOM": ["PR"], "SDTMVAR": "PRTPT"}, {"SDTMDOM": ["PR"], "SDTMVAR": "PRTPTNUM"}, {"SDTMDOM": ["PR"], "SDTMVAR": "PRTPTREF"}, {"SDTMDOM": ["PR"], "SDTMVAR": "PRTRT"}, {"SDTMDOM": ["SUPPPR"], "SDTMVAR": "PRTRTINT"}, {"SDTMDOM": ["SUPPPR"], "SDTMVAR": "PRTYPE"}, {"SDTMDOM": ["QS", "QSCQ", "QSEG", "QSKN", "QSPI", "QSMR"], "SDTMVAR": "QSBLFL"}, {"SDTMDOM": ["QS", "QSCQ", "QSEG", "QSKN", "QSPI", "QSMR"], "SDTMVAR": "QSCAT"}, {"SDTMDOM": ["QS", "QSCQ", "QSEG", "QSKN", "QSPI", "QSMR"], "SDTMVAR": "QSDRVFL"}, {"SDTMDOM": ["QS", "QSCQ", "QSEG", "QSKN", "QSPI", "QSMR"], "SDTMVAR": "QSDTC"}, {"SDTMDOM": ["QS", "QSCQ", "QSEG", "QSKN", "QSPI", "QSMR"], "SDTMVAR": "QSDY"}, {"SDTMDOM": ["QS", "QSCQ", "QSEG", "QSKN", "QSPI", "QSMR"], "SDTMVAR": "QSELTM"}, {"SDTMDOM": ["QS", "QSCQ", "QSEG", "QSKN", "QSPI", "QSMR"], "SDTMVAR": "QSEVAL"}, {"SDTMDOM": ["QS", "QSCQ", "QSEG", "QSKN", "QSPI", "QSMR"], "SDTMVAR": "QSEVLINT"}, {"SDTMDOM": ["QS", "QSCQ", "QSEG", "QSKN", "QSPI", "QSMR"], "SDTMVAR": "QSGRPID"}, {"SDTMDOM": ["QSPI", "QSMR"], "SDTMVAR": "QSLOC"}, {"SDTMDOM": ["QS", "QSCQ", "QSEG", "QSKN", "QSPI", "QSMR"], "SDTMVAR": "QSMETHOD"}, {"SDTMDOM": ["QS", "QSCQ", "QSEG", "QSKN", "QSPI", "QSMR"], "SDTMVAR": "QSORRES"}, {"SDTMDOM": ["QS", "QSCQ", "QSEG", "QSKN", "QSPI", "QSMR"], "SDTMVAR": "QSORRESU"}, {"SDTMDOM": ["QS", "QSCQ", "QSEG", "QSKN", "QSPI", "QSMR"], "SDTMVAR": "QSREASND"}, {"SDTMDOM": ["QS", "QSCQ", "QSEG", "QSKN", "QSPI", "QSMR"], "SDTMVAR": "QSREFID"}, {"SDTMDOM": ["QS", "QSCQ", "QSEG", "QSKN", "QSPI", "QSMR"], "SDTMVAR": "QSRFTDTC"}, {"SDTMDOM": ["QS", "QSCQ", "QSEG", "QSKN", "QSPI", "QSMR"], "SDTMVAR": "QSSCAT"}, {"SDTMDOM": ["QS", "QSCQ", "QSEG", "QSKN", "QSPI", "QSMR"], "SDTMVAR": "QSSEQ"}, {"SDTMDOM": ["QS", "QSCQ", "QSEG", "QSKN", "QSPI", "QSMR"], "SDTMVAR": "QSSPID"}, {"SDTMDOM": ["QS", "QSCQ", "QSEG", "QSKN", "QSPI", "QSMR"], "SDTMVAR": "QSSTAT"}, {"SDTMDOM": ["QS", "QSCQ", "QSEG", "QSKN", "QSPI", "QSMR"], "SDTMVAR": "QSSTRESC"}, {"SDTMDOM": ["QS", "QSCQ", "QSEG", "QSKN", "QSPI", "QSMR"], "SDTMVAR": "QSSTRESN"}, {"SDTMDOM": ["QS", "QSCQ", "QSEG", "QSKN", "QSPI", "QSMR"], "SDTMVAR": "QSSTRESU"}, {"SDTMDOM": ["QS", "QSCQ", "QSEG", "QSKN", "QSPI", "QSMR"], "SDTMVAR": "QSTEST"}, {"SDTMDOM": ["QS", "QSCQ", "QSEG", "QSKN", "QSPI", "QSMR"], "SDTMVAR": "QSTESTCD"}, {"SDTMDOM": ["QS", "QSCQ", "QSEG", "QSKN", "QSPI", "QSMR"], "SDTMVAR": "QSTPT"}, {"SDTMDOM": ["QS", "QSCQ", "QSEG", "QSKN", "QSPI", "QSMR"], "SDTMVAR": "QSTPTNUM"}, {"SDTMDOM": ["QS", "QSCQ", "QSEG", "QSKN", "QSPI", "QSMR"], "SDTMVAR": "QSTPTREF"}, {"SDTMDOM": ["DM"], "SDTMVAR": "RACE"}, {"SDTMDOM": ["SUPPDM"], "SDTMVAR": "RACE1"}, {"SDTMDOM": ["SUPPDM"], "SDTMVAR": "RACE2"}, {"SDTMDOM": ["SUPPDM"], "SDTMVAR": "RACE3"}, {"SDTMDOM": ["SUPPDM"], "SDTMVAR": "RACE4"}, {"SDTMDOM": ["SUPPDM"], "SDTMVAR": "RACE5"}, {"SDTMDOM": ["SUPPDM"], "SDTMVAR": "RACEOR"}, {"SDTMDOM": ["SUPPDM"], "SDTMVAR": "RANDOM"}, {"SDTMDOM": ["IVRS"], "SDTMVAR": "RDALDTC"}, {"SDTMDOM": ["IVRS", "RAND"], "SDTMVAR": "RDALGDTC"}, {"SDTMDOM": ["IVRS", "RAND"], "SDTMVAR": "RDARM"}, {"SDTMDOM": ["RAND"], "SDTMVAR": "RDARMN"}, {"SDTMDOM": ["IVRS"], "SDTMVAR": "RDBKDDTC"}, {"SDTMDOM": ["IVRS"], "SDTMVAR": "RDBKUNB"}, {"SDTMDOM": ["IVRS"], "SDTMVAR": "RDBKWHO"}, {"SDTMDOM": ["IVRS", "RAND"], "SDTMVAR": "RDBLKNB"}, {"SDTMDOM": ["IVRS"], "SDTMVAR": "RDGROUP1"}, {"SDTMDOM": ["IVRS"], "SDTMVAR": "RDGROUP2"}, {"SDTMDOM": ["IVRS"], "SDTMVAR": "RDGROUP3"}, {"SDTMDOM": ["CO", "RELREC"], "SDTMVAR": "RDOMAIN"}, {"SDTMDOM": ["RAND"], "SDTMVAR": "RDPERIOD"}, {"SDTMDOM": ["IVRS", "RAND"], "SDTMVAR": "RDRAND"}, {"SDTMDOM": ["IVRS", "RAND"], "SDTMVAR": "RDSEQNB"}, {"SDTMDOM": ["IVRS"], "SDTMVAR": "RDSIDE"}, {"SDTMDOM": ["IVRS", "RAND"], "SDTMVAR": "RDSTRAT1"}, {"SDTMDOM": ["IVRS", "RAND"], "SDTMVAR": "RDSTRAT2"}, {"SDTMDOM": ["IVRS", "RAND"], "SDTMVAR": "RDSTRAT3"}, {"SDTMDOM": ["IVRS", "RAND"], "SDTMVAR": "RDSTRAT4"}, {"SDTMDOM": ["IVRS", "RAND"], "SDTMVAR": "RDSTRAT5"}, {"SDTMDOM": ["IVRS"], "SDTMVAR": "RDTTCAT"}, {"SDTMDOM": ["IVRS"], "SDTMVAR": "RDTTNBX"}, {"SDTMDOM": ["IVRS"], "SDTMVAR": "RDVISREF"}, {"SDTMDOM": ["RE"], "SDTMVAR": "REBLFL"}, {"SDTMDOM": ["RE"], "SDTMVAR": "RECAT"}, {"SDTMDOM": ["RE"], "SDTMVAR": "REDIR"}, {"SDTMDOM": ["RE"], "SDTMVAR": "REDRVFL"}, {"SDTMDOM": ["RE"], "SDTMVAR": "REDTC"}, {"SDTMDOM": ["RE"], "SDTMVAR": "REDY"}, {"SDTMDOM": ["RE"], "SDTMVAR": "REELTM"}, {"SDTMDOM": ["RE"], "SDTMVAR": "REEVAL"}, {"SDTMDOM": ["RE"], "SDTMVAR": "REEVALID"}, {"SDTMDOM": ["SUPPLB", "SUPPLBUS"], "SDTMVAR": "REF_HIGH"}, {"SDTMDOM": ["SUPPLB", "SUPPLBUS"], "SDTMVAR": "REF_LOW"}, {"SDTMDOM": ["RE"], "SDTMVAR": "REGRPID"}, {"SDTMDOM": ["SUPPRE"], "SDTMVAR": "REIRESFL"}, {"SDTMDOM": ["RE"], "SDTMVAR": "RELAT"}, {"SDTMDOM": ["RELREC"], "SDTMVAR": "RELID"}, {"SDTMDOM": ["RE"], "SDTMVAR": "RELNKGRP"}, {"SDTMDOM": ["RE"], "SDTMVAR": "RELNKID"}, {"SDTMDOM": ["RE"], "SDTMVAR": "RELOBXFL"}, {"SDTMDOM": ["RE"], "SDTMVAR": "RELOC"}, {"SDTMDOM": ["RELREC"], "SDTMVAR": "RELTYPE"}, {"SDTMDOM": ["RE"], "SDTMVAR": "REMETHOD"}, {"SDTMDOM": ["RE", "SUPPRE"], "SDTMVAR": "REORREF"}, {"SDTMDOM": ["RE"], "SDTMVAR": "REORRES"}, {"SDTMDOM": ["RE"], "SDTMVAR": "REORRESU"}, {"SDTMDOM": ["RE"], "SDTMVAR": "REPOS"}, {"SDTMDOM": ["RE"], "SDTMVAR": "REREASND"}, {"SDTMDOM": ["RE"], "SDTMVAR": "REREFID"}, {"SDTMDOM": ["RE"], "SDTMVAR": "REREPNUM"}, {"SDTMDOM": ["RE"], "SDTMVAR": "RERFTDTC"}, {"SDTMDOM": ["RE"], "SDTMVAR": "RESCAT"}, {"SDTMDOM": ["RE"], "SDTMVAR": "RESEQ"}, {"SDTMDOM": ["RE"], "SDTMVAR": "RESPID"}, {"SDTMDOM": ["RE"], "SDTMVAR": "RESTAT"}, {"SDTMDOM": ["RE"], "SDTMVAR": "RESTREFC"}, {"SDTMDOM": ["RE", "SUPPRE"], "SDTMVAR": "RESTREFN"}, {"SDTMDOM": ["RE"], "SDTMVAR": "RESTRESC"}, {"SDTMDOM": ["RE"], "SDTMVAR": "RESTRESN"}, {"SDTMDOM": ["RE"], "SDTMVAR": "RESTRESU"}, {"SDTMDOM": ["RE"], "SDTMVAR": "RETEST"}, {"SDTMDOM": ["RE"], "SDTMVAR": "RETESTCD"}, {"SDTMDOM": ["RE"], "SDTMVAR": "RETPT"}, {"SDTMDOM": ["RE"], "SDTMVAR": "RETPTNUM"}, {"SDTMDOM": ["RE"], "SDTMVAR": "RETPTREF"}, {"SDTMDOM": ["DM"], "SDTMVAR": "RFENDTC"}, {"SDTMDOM": ["DM"], "SDTMVAR": "RFICDTC"}, {"SDTMDOM": ["DM"], "SDTMVAR": "RFPENDTC"}, {"SDTMDOM": ["DM"], "SDTMVAR": "RFSTDTC"}, {"SDTMDOM": ["DM"], "SDTMVAR": "RFXENDTC"}, {"SDTMDOM": ["DM"], "SDTMVAR": "RFXSTDTC"}, {"SDTMDOM": ["RP"], "SDTMVAR": "RPBLFL"}, {"SDTMDOM": ["RP"], "SDTMVAR": "RPCAT"}, {"SDTMDOM": ["RP"], "SDTMVAR": "RPDRVFL"}, {"SDTMDOM": ["RP"], "SDTMVAR": "RPDTC"}, {"SDTMDOM": ["RP"], "SDTMVAR": "RPDY"}, {"SDTMDOM": ["RP"], "SDTMVAR": "RPGRPID"}, {"SDTMDOM": ["RP"], "SDTMVAR": "RPORRES"}, {"SDTMDOM": ["RP"], "SDTMVAR": "RPORRESU"}, {"SDTMDOM": ["RP"], "SDTMVAR": "RPREASND"}, {"SDTMDOM": ["RP"], "SDTMVAR": "RPREFID"}, {"SDTMDOM": ["RP"], "SDTMVAR": "RPSCAT"}, {"SDTMDOM": ["RP"], "SDTMVAR": "RPSEQ"}, {"SDTMDOM": ["RP"], "SDTMVAR": "RPSPID"}, {"SDTMDOM": ["RP"], "SDTMVAR": "RPSTAT"}, {"SDTMDOM": ["RP"], "SDTMVAR": "RPSTRESC"}, {"SDTMDOM": ["RP"], "SDTMVAR": "RPSTRESN"}, {"SDTMDOM": ["RP"], "SDTMVAR": "RPSTRESU"}, {"SDTMDOM": ["SUPPDM"], "SDTMVAR": "RPSUBJID"}, {"SDTMDOM": ["RP"], "SDTMVAR": "RPTEST"}, {"SDTMDOM": ["RP"], "SDTMVAR": "RPTESTCD"}, {"SDTMDOM": ["RS"], "SDTMVAR": "RSACPTFL"}, {"SDTMDOM": ["RS"], "SDTMVAR": "RSBLFL"}, {"SDTMDOM": ["RS"], "SDTMVAR": "RSCAT"}, {"SDTMDOM": ["SUPPRS"], "SDTMVAR": "RSCYCVID"}, {"SDTMDOM": ["RS"], "SDTMVAR": "RSDRVFL"}, {"SDTMDOM": ["RS"], "SDTMVAR": "RSDTC"}, {"SDTMDOM": ["RS"], "SDTMVAR": "RSDY"}, {"SDTMDOM": ["RS"], "SDTMVAR": "RSEVAL"}, {"SDTMDOM": ["RS"], "SDTMVAR": "RSEVALID"}, {"SDTMDOM": ["RS"], "SDTMVAR": "RSLNKGRP"}, {"SDTMDOM": ["RS"], "SDTMVAR": "RSLNKID"}, {"SDTMDOM": ["SUPPRS"], "SDTMVAR": "RSLOC1"}, {"SDTMDOM": ["SUPPRS"], "SDTMVAR": "RSNESP"}, {"SDTMDOM": ["SUPPRS"], "SDTMVAR": "RSNL"}, {"SDTMDOM": ["RS"], "SDTMVAR": "RSORRES"}, {"SDTMDOM": ["RS"], "SDTMVAR": "RSORRESU"}, {"SDTMDOM": ["RS"], "SDTMVAR": "RSRESCAT"}, {"SDTMDOM": ["RS"], "SDTMVAR": "RSSEQ"}, {"SDTMDOM": ["RS"], "SDTMVAR": "RSSTAT"}, {"SDTMDOM": ["RS"], "SDTMVAR": "RSSTRESC"}, {"SDTMDOM": ["RS"], "SDTMVAR": "RSSTRESN"}, {"SDTMDOM": ["RS"], "SDTMVAR": "RSTEST"}, {"SDTMDOM": ["RS"], "SDTMVAR": "RSTESTCD"}, {"SDTMDOM": ["APAE", "APMH"], "SDTMVAR": "RSUBJID"}, {"SDTMDOM": ["SUPPDM"], "SDTMVAR": "SAFETY"}, {"SDTMDOM": ["SC"], "SDTMVAR": "SCCAT"}, {"SDTMDOM": ["SC"], "SDTMVAR": "SCORRES"}, {"SDTMDOM": ["SC"], "SDTMVAR": "SCORRESU"}, {"SDTMDOM": ["SC"], "SDTMVAR": "SCSEQ"}, {"SDTMDOM": ["SC"], "SDTMVAR": "SCSTRESC"}, {"SDTMDOM": ["SC"], "SDTMVAR": "SCSTRESN"}, {"SDTMDOM": ["SC"], "SDTMVAR": "SCSTRESU"}, {"SDTMDOM": ["SC"], "SDTMVAR": "SCTEST"}, {"SDTMDOM": ["SC"], "SDTMVAR": "SCTESTCD"}, {"SDTMDOM": ["SE"], "SDTMVAR": "SEENDTC"}, {"SDTMDOM": ["SE"], "SDTMVAR": "SEENDY"}, {"SDTMDOM": ["SE"], "SDTMVAR": "SESEQ"}, {"SDTMDOM": ["SE"], "SDTMVAR": "SESTDTC"}, {"SDTMDOM": ["SE"], "SDTMVAR": "SESTDY"}, {"SDTMDOM": ["SE"], "SDTMVAR": "SEUPDES"}, {"SDTMDOM": ["DM"], "SDTMVAR": "SEX"}, {"SDTMDOM": ["DM"], "SDTMVAR": "SITEID"}, {"SDTMDOM": ["DE", "PF", "RE"], "SDTMVAR": "SPDEVID"}, {"SDTMDOM": ["SR"], "SDTMVAR": "SRCAT"}, {"SDTMDOM": ["SR"], "SDTMVAR": "SRDTC"}, {"SDTMDOM": ["SR"], "SDTMVAR": "SRDY"}, {"SDTMDOM": ["APAE", "APMH"], "SDTMVAR": "SREL"}, {"SDTMDOM": ["SR"], "SDTMVAR": "SRELTM"}, {"SDTMDOM": ["SR"], "SDTMVAR": "SREVAL"}, {"SDTMDOM": ["SR"], "SDTMVAR": "SRGRPID"}, {"SDTMDOM": ["SR"], "SDTMVAR": "SRLAT"}, {"SDTMDOM": ["SR"], "SDTMVAR": "SRLOC"}, {"SDTMDOM": ["SR"], "SDTMVAR": "SRMETHOD"}, {"SDTMDOM": ["SR"], "SDTMVAR": "SRNAM"}, {"SDTMDOM": ["SR"], "SDTMVAR": "SROBJ"}, {"SDTMDOM": ["SR"], "SDTMVAR": "SRORRES"}, {"SDTMDOM": ["SR"], "SDTMVAR": "SRORRESU"}, {"SDTMDOM": ["SR"], "SDTMVAR": "SRREASND"}, {"SDTMDOM": ["SR"], "SDTMVAR": "SRREFID"}, {"SDTMDOM": ["SR"], "SDTMVAR": "SRRFTDTC"}, {"SDTMDOM": ["SR"], "SDTMVAR": "SRSCAT"}, {"SDTMDOM": ["SR"], "SDTMVAR": "SRSEQ"}, {"SDTMDOM": ["SR"], "SDTMVAR": "SRSPEC"}, {"SDTMDOM": ["SR"], "SDTMVAR": "SRSPID"}, {"SDTMDOM": ["SR"], "SDTMVAR": "SRSTAT"}, {"SDTMDOM": ["SR"], "SDTMVAR": "SRSTRESC"}, {"SDTMDOM": ["SR"], "SDTMVAR": "SRSTRESN"}, {"SDTMDOM": ["SR"], "SDTMVAR": "SRSTRESU"}, {"SDTMDOM": ["SR"], "SDTMVAR": "SRTEST"}, {"SDTMDOM": ["SR"], "SDTMVAR": "SRTESTCD"}, {"SDTMDOM": ["SR"], "SDTMVAR": "SRTPT"}, {"SDTMDOM": ["SR"], "SDTMVAR": "SRTPTNUM"}, {"SDTMDOM": ["SR"], "SDTMVAR": "SRTPTREF"}, {"SDTMDOM": ["SS"], "SDTMVAR": "SSDTC"}, {"SDTMDOM": ["SS"], "SDTMVAR": "SSDY"}, {"SDTMDOM": ["SUPPSS"], "SDTMVAR": "SSMTHDCT"}, {"SDTMDOM": ["SUPPSS"], "SDTMVAR": "SSMTHOTH"}, {"SDTMDOM": ["SS"], "SDTMVAR": "SSORRES"}, {"SDTMDOM": ["SS"], "SDTMVAR": "SSSEQ"}, {"SDTMDOM": ["SS"], "SDTMVAR": "SSSTRESC"}, {"SDTMDOM": ["SS"], "SDTMVAR": "SSTEST"}, {"SDTMDOM": ["SS"], "SDTMVAR": "SSTESTCD"}, {"SDTMDOM": ["SUPPDM"], "SDTMVAR": "STRATUM"}, {"SDTMDOM": ["SUPPDM"], "SDTMVAR": "STRATUM2"}, {"SDTMDOM": ["SUPPDM"], "SDTMVAR": "STRATUM3"}, {"SDTMDOM": ["SUPPDM"], "SDTMVAR": "STRATUM4"}, {"SDTMDOM": ["SUPPDM"], "SDTMVAR": "STRATUM5"}, {"SDTMDOM": ["AE", "AG", "APAE", "APMH", "CC", "CCLN", "CE", "CI", "CM", "CO", "CV", "DA", "DD", "DE", "DM", "DS", "DV", "EC", "EG", "EX", "FA", "FAAE", "FACE", "FAPR", "FARS", "FT", "HO", "IE", "IS", "IVRS", "LB", "LBUS", "LDV", "MH", "MI", "MK", "ML", "MO", "NV", "OE", "PC", "PE", "PF", "PP", "PR", "QS", "QSCQ", "QSEG", "QSKN", "QSPI", "QSMR", "RAND", "RE", "RELREC", "RP", "RS", "SC", "SE", "SR", "SS", "SU", "SV", "TA", "TD", "TE", "TI", "TR", "TS", "TU", "TV", "VS"], "SDTMVAR": "STUDYID"}, {"SDTMDOM": ["DM"], "SDTMVAR": "SUBJID"}, {"SDTMDOM": ["SU"], "SDTMVAR": "SUCAT"}, {"SDTMDOM": ["SU"], "SDTMVAR": "SUDOSE"}, {"SDTMDOM": ["SU"], "SDTMVAR": "SUDOSFRQ"}, {"SDTMDOM": ["SU"], "SDTMVAR": "SUDOSTXT"}, {"SDTMDOM": ["SU"], "SDTMVAR": "SUDOSU"}, {"SDTMDOM": ["SU"], "SDTMVAR": "SUDUR"}, {"SDTMDOM": ["SU"], "SDTMVAR": "SUENDTC"}, {"SDTMDOM": ["SU"], "SDTMVAR": "SUENDY"}, {"SDTMDOM": ["SU"], "SDTMVAR": "SUENRTPT"}, {"SDTMDOM": ["SU"], "SDTMVAR": "SUENTPT"}, {"SDTMDOM": ["SUPPSU"], "SDTMVAR": "SUNCF"}, {"SDTMDOM": ["SU"], "SDTMVAR": "SUOCCUR"}, {"SDTMDOM": ["SU"], "SDTMVAR": "SUPRESP"}, {"SDTMDOM": ["SU"], "SDTMVAR": "SUSEQ"}, {"SDTMDOM": ["SU"], "SDTMVAR": "SUSTDTC"}, {"SDTMDOM": ["SU"], "SDTMVAR": "SUSTDY"}, {"SDTMDOM": ["SU"], "SDTMVAR": "SUSTRTPT"}, {"SDTMDOM": ["SU"], "SDTMVAR": "SUSTTPT"}, {"SDTMDOM": ["SU"], "SDTMVAR": "SUTRT"}, {"SDTMDOM": ["SV"], "SDTMVAR": "SVENDTC"}, {"SDTMDOM": ["SV"], "SDTMVAR": "SVENDY"}, {"SDTMDOM": ["SUPPSV"], "SDTMVAR": "SVMTHDCT"}, {"SDTMDOM": ["SV"], "SDTMVAR": "SVSTDTC"}, {"SDTMDOM": ["SV"], "SDTMVAR": "SVSTDY"}, {"SDTMDOM": ["SV"], "SDTMVAR": "SVUPDES"}, {"SDTMDOM": ["TA"], "SDTMVAR": "TABRANCH"}, {"SDTMDOM": ["RE", "SE", "TA"], "SDTMVAR": "TAETORD"}, {"SDTMDOM": ["TA"], "SDTMVAR": "TATRANS"}, {"SDTMDOM": ["TD"], "SDTMVAR": "TDANCVAR"}, {"SDTMDOM": ["TD"], "SDTMVAR": "TDMAXPAI"}, {"SDTMDOM": ["TD"], "SDTMVAR": "TDMINPAI"}, {"SDTMDOM": ["TD"], "SDTMVAR": "TDNUMRPT"}, {"SDTMDOM": ["TD"], "SDTMVAR": "TDORDER"}, {"SDTMDOM": ["TD"], "SDTMVAR": "TDSTOFF"}, {"SDTMDOM": ["TD"], "SDTMVAR": "TDTGTPAI"}, {"SDTMDOM": ["TE"], "SDTMVAR": "TEDUR"}, {"SDTMDOM": ["TE"], "SDTMVAR": "TEENRL"}, {"SDTMDOM": ["TE"], "SDTMVAR": "TESTRL"}, {"SDTMDOM": ["TI"], "SDTMVAR": "TIRL"}, {"SDTMDOM": ["TI"], "SDTMVAR": "TIVERS"}, {"SDTMDOM": ["TR"], "SDTMVAR": "TRACPTFL"}, {"SDTMDOM": ["TR"], "SDTMVAR": "TRBLFL"}, {"SDTMDOM": ["SUPPTR"], "SDTMVAR": "TRCYCVID"}, {"SDTMDOM": ["TR"], "SDTMVAR": "TRDRVFL"}, {"SDTMDOM": ["TR"], "SDTMVAR": "TRDTC"}, {"SDTMDOM": ["TR"], "SDTMVAR": "TRDY"}, {"SDTMDOM": ["TR"], "SDTMVAR": "TREVAL"}, {"SDTMDOM": ["TR"], "SDTMVAR": "TREVALID"}, {"SDTMDOM": ["TR"], "SDTMVAR": "TRGRPID"}, {"SDTMDOM": ["TR"], "SDTMVAR": "TRLNKID"}, {"SDTMDOM": ["TR"], "SDTMVAR": "TRMETHOD"}, {"SDTMDOM": ["SUPPTR"], "SDTMVAR": "TRMETOTH"}, {"SDTMDOM": ["TR"], "SDTMVAR": "TRORRES"}, {"SDTMDOM": ["TR"], "SDTMVAR": "TRORRESU"}, {"SDTMDOM": ["TR"], "SDTMVAR": "TRSEQ"}, {"SDTMDOM": ["TR"], "SDTMVAR": "TRSPID"}, {"SDTMDOM": ["TR"], "SDTMVAR": "TRSTAT"}, {"SDTMDOM": ["TR"], "SDTMVAR": "TRSTRESC"}, {"SDTMDOM": ["TR"], "SDTMVAR": "TRSTRESN"}, {"SDTMDOM": ["TR"], "SDTMVAR": "TRSTRESU"}, {"SDTMDOM": ["SUPPEX"], "SDTMVAR": "TRTA"}, {"SDTMDOM": ["TR"], "SDTMVAR": "TRTEST"}, {"SDTMDOM": ["TR"], "SDTMVAR": "TRTESTCD"}, {"SDTMDOM": ["SUPPAE"], "SDTMVAR": "TRTLST"}, {"SDTMDOM": ["TS"], "SDTMVAR": "TSGRPID"}, {"SDTMDOM": ["TS"], "SDTMVAR": "TSPARM"}, {"SDTMDOM": ["TS"], "SDTMVAR": "TSPARMCD"}, {"SDTMDOM": ["TS"], "SDTMVAR": "TSSEQ"}, {"SDTMDOM": ["TS"], "SDTMVAR": "TSVAL"}, {"SDTMDOM": ["TS"], "SDTMVAR": "TSVALCD"}, {"SDTMDOM": ["TS"], "SDTMVAR": "TSVALNF"}, {"SDTMDOM": ["TS"], "SDTMVAR": "TSVCDREF"}, {"SDTMDOM": ["TS"], "SDTMVAR": "TSVCDVER"}, {"SDTMDOM": ["TU"], "SDTMVAR": "TUACPTFL"}, {"SDTMDOM": ["SUPPTU"], "SDTMVAR": "TUCYCVID"}, {"SDTMDOM": ["TU"], "SDTMVAR": "TUDTC"}, {"SDTMDOM": ["TU"], "SDTMVAR": "TUDY"}, {"SDTMDOM": ["TU"], "SDTMVAR": "TUEVAL"}, {"SDTMDOM": ["TU"], "SDTMVAR": "TUEVALID"}, {"SDTMDOM": ["TU"], "SDTMVAR": "TUGRPID"}, {"SDTMDOM": ["TU"], "SDTMVAR": "TULNKID"}, {"SDTMDOM": ["TU"], "SDTMVAR": "TULOC"}, {"SDTMDOM": ["SUPPTU"], "SDTMVAR": "TULOCDTL"}, {"SDTMDOM": ["TU"], "SDTMVAR": "TUMETHOD"}, {"SDTMDOM": ["SUPPTU"], "SDTMVAR": "TUMETOTH"}, {"SDTMDOM": ["TU"], "SDTMVAR": "TUNAM"}, {"SDTMDOM": ["TU"], "SDTMVAR": "TUORRES"}, {"SDTMDOM": ["TU"], "SDTMVAR": "TUSEQ"}, {"SDTMDOM": ["TU"], "SDTMVAR": "TUSTRESC"}, {"SDTMDOM": ["TU"], "SDTMVAR": "TUTEST"}, {"SDTMDOM": ["TU"], "SDTMVAR": "TUTESTCD"}, {"SDTMDOM": ["TV"], "SDTMVAR": "TVENRL"}, {"SDTMDOM": ["TV"], "SDTMVAR": "TVSTRL"}, {"SDTMDOM": ["AE", "AG", "CC", "CCLN", "CE", "CI", "CM", "CO", "CV", "DA", "DD", "DE", "DM", "DS", "DV", "EC", "EG", "EX", "FA", "FAAE", "FACE", "FAPR", "FARS", "FT", "HO", "IE", "IS", "IVRS", "LB", "LBUS", "LDV", "MH", "MI", "MK", "ML", "MO", "NV", "OE", "PC", "PE", "PF", "PP", "PR", "QS", "QSCQ", "QSEG", "QSKN", "QSPI", "QSMR", "RAND", "RE", "RELREC", "RP", "RS", "SC", "SE", "SR", "SS", "SU", "SV", "TR", "TU", "VS"], "SDTMVAR": "USUBJID"}, {"SDTMDOM": ["AG", "CC", "CCLN", "CE", "CM", "CO", "CV", "DA", "DD", "DE", "DS", "DV", "EC", "EG", "EX", "FA", "FAAE", "FACE", "FAPR", "FARS", "FT", "HO", "IE", "IS", "LB", "LBUS", "LDV", "MH", "MI", "MK", "ML", "MO", "NV", "OE", "PC", "PE", "PF", "PR", "QS", "QSCQ", "QSEG", "QSKN", "QSPI", "QSMR", "RE", "RP", "RS", "SR", "SS", "SU", "SV", "TR", "TU", "TV", "VS"], "SDTMVAR": "VISIT"}, {"SDTMDOM": ["AG", "CC", "CCLN", "CE", "CM", "CO", "CV", "DA", "DD", "DE", "DS", "DV", "EC", "EG", "EX", "FA", "FAAE", "FACE", "FAPR", "FARS", "FT", "IE", "IS", "LB", "LBUS", "LDV", "MH", "MI", "MK", "ML", "MO", "NV", "OE", "PC", "PE", "PF", "PR", "QS", "QSCQ", "QSEG", "QSKN", "QSPI", "QSMR", "RE", "RP", "RS", "SR", "SS", "SU", "SV", "TR", "TU", "TV", "VS"], "SDTMVAR": "VISITDY"}, {"SDTMDOM": ["AG", "CC", "CCLN", "CE", "CM", "CO", "CV", "DA", "DD", "DE", "DS", "DV", "EC", "EG", "EX", "FA", "FAAE", "FACE", "FAPR", "FARS", "FT", "HO", "IE", "IS", "IVRS", "LB", "LBUS", "LDV", "MH", "MI", "MK", "ML", "MO", "NV", "OE", "PC", "PE", "PF", "PR", "QS", "QSCQ", "QSEG", "QSKN", "QSPI", "QSMR", "RE", "RP", "RS", "SR", "SS", "SU", "SV", "TR", "TU", "TV", "VS"], "SDTMVAR": "VISITNUM"}, {"SDTMDOM": ["SUPPVS"], "SDTMVAR": "VSAENO"}, {"SDTMDOM": ["VS"], "SDTMVAR": "VSBLFL"}, {"SDTMDOM": ["VS"], "SDTMVAR": "VSCAT"}, {"SDTMDOM": ["SUPPVS"], "SDTMVAR": "VSCLSIG"}, {"SDTMDOM": ["VS"], "SDTMVAR": "VSDRVFL"}, {"SDTMDOM": ["VS"], "SDTMVAR": "VSDTC"}, {"SDTMDOM": ["VS"], "SDTMVAR": "VSDY"}, {"SDTMDOM": ["VS"], "SDTMVAR": "VSELTM"}, {"SDTMDOM": ["VS"], "SDTMVAR": "VSLNKID"}, {"SDTMDOM": ["VS"], "SDTMVAR": "VSLOC"}, {"SDTMDOM": ["VS"], "SDTMVAR": "VSMETHOD"}, {"SDTMDOM": ["VS"], "SDTMVAR": "VSORRES"}, {"SDTMDOM": ["VS"], "SDTMVAR": "VSORRESU"}, {"SDTMDOM": ["VS"], "SDTMVAR": "VSPOS"}, {"SDTMDOM": ["VS"], "SDTMVAR": "VSRFTDTC"}, {"SDTMDOM": ["VS"], "SDTMVAR": "VSSEQ"}, {"SDTMDOM": ["VS"], "SDTMVAR": "VSSTAT"}, {"SDTMDOM": ["SUPPVS"], "SDTMVAR": "VSSTPT"}, {"SDTMDOM": ["VS"], "SDTMVAR": "VSSTRESC"}, {"SDTMDOM": ["VS"], "SDTMVAR": "VSSTRESN"}, {"SDTMDOM": ["VS"], "SDTMVAR": "VSSTRESU"}, {"SDTMDOM": ["VS"], "SDTMVAR": "VSTEST"}, {"SDTMDOM": ["VS"], "SDTMVAR": "VSTESTCD"}, {"SDTMDOM": ["VS"], "SDTMVAR": "VSTPT"}, {"SDTMDOM": ["VS"], "SDTMVAR": "VSTPTNUM"}, {"SDTMDOM": ["VS"], "SDTMVAR": "VSTPTREF"}], "NAME": "i0424690", "SANOFICDASH": [{"SDTMDOM": ["AE"], "CDASHVAR": "AEACNC", "SDTMVAR": ["AEACN", "AEACNC"]}, {"SDTMDOM": ["AE"], "CDASHVAR": "AEACNC2", "SDTMVAR": ["AEACN2", "AEACNC2"]}, {"SDTMDOM": ["AE"], "CDASHVAR": "AEACNC2_ACN_01", "SDTMVAR": ["AEACN2", "AEACNC2"]}, {"SDTMDOM": ["AE", "APAE"], "CDASHVAR": "AEACNC2_ACN_03", "SDTMVAR": ["AEACN2", "AEACNC2"]}, {"SDTMDOM": ["AE"], "CDASHVAR": "AEACNC3", "SDTMVAR": ["AEACN3", "AEACNC3"]}, {"SDTMDOM": ["AE"], "CDASHVAR": "AEACNC3_ACN_01", "SDTMVAR": ["AEACN3", "AEACNC3"]}, {"SDTMDOM": ["AE", "APAE"], "CDASHVAR": "AEACNC3_ACN_03", "SDTMVAR": ["AEACN3", "AEACNC3"]}, {"SDTMDOM": ["AE"], "CDASHVAR": "AEACNC4", "SDTMVAR": ["AEACN4", "AEACNC4"]}, {"SDTMDOM": ["AE"], "CDASHVAR": "AEACNC4_ACN_01", "SDTMVAR": ["AEACN4", "AEACNC4"]}, {"SDTMDOM": ["AE", "APAE"], "CDASHVAR": "AEACNC4_ACN_03", "SDTMVAR": ["AEACN4", "AEACNC4"]}, {"SDTMDOM": ["AE"], "CDASHVAR": "AEACNC_ACN_01", "SDTMVAR": ["AEACN", "AEACNC"]}, {"SDTMDOM": ["AE", "APAE"], "CDASHVAR": "AEACNC_ACN_03", "SDTMVAR": ["AEACN", "AEACNC"]}, {"SDTMDOM": ["AE", "APAE"], "CDASHVAR": "AECAT", "SDTMVAR": ["AECAT"]}, {"SDTMDOM": ["AE"], "CDASHVAR": "AECONTRT", "SDTMVAR": ["AECONTRT"]}, {"SDTMDOM": ["AE"], "CDASHVAR": "AECYCNAM", "SDTMVAR": ["AECYCNAM"]}, {"SDTMDOM": ["AE"], "CDASHVAR": "AECYCVID", "SDTMVAR": ["AECYCVID"]}, {"SDTMDOM": ["AE"], "CDASHVAR": "AEDLT", "SDTMVAR": ["AEDLT"]}, {"SDTMDOM": ["AE", "APAE"], "CDASHVAR": "AEENDAT", "SDTMVAR": ["AEENDTC"]}, {"SDTMDOM": ["AE", "APAE"], "CDASHVAR": "AEENTIM", "SDTMVAR": ["AEENDTC"]}, {"SDTMDOM": ["AE", "APAE"], "CDASHVAR": "AEISPID", "SDTMVAR": ["AEISPID"]}, {"SDTMDOM": ["AE"], "CDASHVAR": "AEOUT", "SDTMVAR": ["AEOUT"]}, {"SDTMDOM": ["AE", "APAE"], "CDASHVAR": "AEOUTPRG", "SDTMVAR": ["AEOUTPRG"]}, {"SDTMDOM": ["AE"], "CDASHVAR": "AEOVIMP", "SDTMVAR": ["AEOVIMP"]}, {"SDTMDOM": ["AE"], "CDASHVAR": "AEOVIMP2", "SDTMVAR": ["AEOVIMP2"]}, {"SDTMDOM": ["AE"], "CDASHVAR": "AEOVIMP3", "SDTMVAR": ["AEOVIMP3"]}, {"SDTMDOM": ["AE"], "CDASHVAR": "AEOVIMP4", "SDTMVAR": ["AEOVIMP4"]}, {"SDTMDOM": ["AE"], "CDASHVAR": "AEOVNCM", "SDTMVAR": ["AEOVNCM"]}, {"SDTMDOM": ["AE"], "CDASHVAR": "AEOVNCMS", "SDTMVAR": ["AEOVNCMS"]}, {"SDTMDOM": ["AE"], "CDASHVAR": "AEOVNIMP", "SDTMVAR": ["AEOVNIMP"]}, {"SDTMDOM": ["AE"], "CDASHVAR": "AEOVOTCM", "SDTMVAR": ["AEOVOTCM"]}, {"SDTMDOM": ["AE"], "CDASHVAR": "AEOVSYMP", "SDTMVAR": ["AEOVSYMP"]}, {"SDTMDOM": ["AE", "APAE"], "CDASHVAR": "AEPRAEYN", "SDTMVAR": ["AEPRAEYN"]}, {"SDTMDOM": ["AE", "APAE"], "CDASHVAR": "AEREL_01", "SDTMVAR": ["AEREL", "AEREL2", "AEREL3", "AEREL4", "AERELNST", "AERELPR"]}, {"SDTMDOM": ["AE"], "CDASHVAR": "AESCONG", "SDTMVAR": ["AESCONG"]}, {"SDTMDOM": ["AE"], "CDASHVAR": "AESDISAB", "SDTMVAR": ["AESDISAB"]}, {"SDTMDOM": ["AE"], "CDASHVAR": "AESDTH", "SDTMVAR": ["AESDTH"]}, {"SDTMDOM": ["AE"], "CDASHVAR": "AESEQUCM", "SDTMVAR": ["AESEQUCM"]}, {"SDTMDOM": ["AE"], "CDASHVAR": "AESER", "SDTMVAR": ["AESER"]}, {"SDTMDOM": ["AE"], "CDASHVAR": "AESERDAT", "SDTMVAR": ["AESERDTC"]}, {"SDTMDOM": ["AE"], "CDASHVAR": "AESHOSP", "SDTMVAR": ["AESHOSP"]}, {"SDTMDOM": ["AE"], "CDASHVAR": "AESIIN", "SDTMVAR": ["AESIIN"]}, {"SDTMDOM": ["AE"], "CDASHVAR": "AESLIFE", "SDTMVAR": ["AESLIFE"]}, {"SDTMDOM": ["AE"], "CDASHVAR": "AESMIE", "SDTMVAR": ["AESMIE"]}, {"SDTMDOM": ["AE", "APAE"], "CDASHVAR": "AESPID", "SDTMVAR": ["AEREFID"]}, {"SDTMDOM": ["AE"], "CDASHVAR": "AESTABLE", "SDTMVAR": ["AESTABLE"]}, {"SDTMDOM": ["AE", "APAE"], "CDASHVAR": "AESTDAT", "SDTMVAR": ["AESTDTC"]}, {"SDTMDOM": ["AE"], "CDASHVAR": "AESTTIM", "SDTMVAR": ["AESTDTC"]}, {"SDTMDOM": ["AE", "APAE"], "CDASHVAR": "AETERM", "SDTMVAR": ["AETERM"]}, {"SDTMDOM": ["AE"], "CDASHVAR": "AETOXGR_01", "SDTMVAR": ["AETOXGR"]}, {"SDTMDOM": ["DM"], "CDASHVAR": "AGE", "SDTMVAR": ["AGE"]}, {"SDTMDOM": ["DM"], "CDASHVAR": "AGEU", "SDTMVAR": ["AGEU"]}, {"SDTMDOM": ["DM"], "CDASHVAR": "BRTHDAT", "SDTMVAR": ["BRTHDTC"]}, {"SDTMDOM": ["MH", "MI"], "CDASHVAR": "CGCAT", "SDTMVAR": ["MHCAT", "MICAT"]}, {"SDTMDOM": ["MI"], "CDASHVAR": "CGDGSP", "SDTMVAR": ["MIORRES"]}, {"SDTMDOM": ["MI"], "CDASHVAR": "CGDGST", "SDTMVAR": ["MIORRES", "MISTRESC"]}, {"SDTMDOM": ["MH"], "CDASHVAR": "CGLOC", "SDTMVAR": ["MHLOC"]}, {"SDTMDOM": ["MH"], "CDASHVAR": "CGLOCSP", "SDTMVAR": ["MHLOCOTH"]}, {"SDTMDOM": ["MI"], "CDASHVAR": "CGM", "SDTMVAR": ["MIORRES", "MISTRESC"]}, {"SDTMDOM": ["MI"], "CDASHVAR": "CGN", "SDTMVAR": ["MIORRES", "MISTRESC"]}, {"SDTMDOM": ["MI"], "CDASHVAR": "CGPAT", "SDTMVAR": ["MIORRES", "MISTRESC"]}, {"SDTMDOM": ["MI"], "CDASHVAR": "CGPATSP", "SDTMVAR": ["MIORRES"]}, {"SDTMDOM": ["MI"], "CDASHVAR": "CGRSK", "SDTMVAR": ["MIORRES", "MISTRESC"]}, {"SDTMDOM": ["MI"], "CDASHVAR": "CGSC", "SDTMVAR": ["MIORRES", "MISTRESC", "MISTRESN"]}, {"SDTMDOM": ["MH", "MI"], "CDASHVAR": "CGSTDAT", "SDTMVAR": ["MHSTDTC", "MIDTC"]}, {"SDTMDOM": ["MI"], "CDASHVAR": "CGSTG", "SDTMVAR": ["MIORRES", "MISTRESC"]}, {"SDTMDOM": ["MI"], "CDASHVAR": "CGT", "SDTMVAR": ["MIORRES", "MISTRESC"]}, {"SDTMDOM": ["MH"], "CDASHVAR": "CGTERM_NEOPLASM", "SDTMVAR": ["MHPRESP", "MHTERM"]}, {"SDTMDOM": ["MH"], "CDASHVAR": "CGTRMSP", "SDTMVAR": ["MHTERM"]}, {"SDTMDOM": ["CM"], "CDASHVAR": "CMBR", "SDTMVAR": ["CMBR"]}, {"SDTMDOM": ["CM"], "CDASHVAR": "CMCAT", "SDTMVAR": ["CMCAT"]}, {"SDTMDOM": ["CM"], "CDASHVAR": "CMCAT_ONC", "SDTMVAR": ["CMCAT"]}, {"SDTMDOM": ["CM"], "CDASHVAR": "CMDOSE", "SDTMVAR": ["CMDOSE"]}, {"SDTMDOM": ["CM"], "CDASHVAR": "CMDOSTOT", "SDTMVAR": ["CMDOSTOT"]}, {"SDTMDOM": ["CM"], "CDASHVAR": "CMDOSU", "SDTMVAR": ["CMDOSU"]}, {"SDTMDOM": ["CM"], "CDASHVAR": "CMDSREAS_07", "SDTMVAR": ["CMRSDISC"]}, {"SDTMDOM": ["CM"], "CDASHVAR": "CMDSRSP", "SDTMVAR": ["CMDSROTH"]}, {"SDTMDOM": ["CM"], "CDASHVAR": "CMENDAT", "SDTMVAR": ["CMENDTC"]}, {"SDTMDOM": ["CM"], "CDASHVAR": "CMGRPID", "SDTMVAR": ["CMGRPID"]}, {"SDTMDOM": ["CM"], "CDASHVAR": "CMOCCUR", "SDTMVAR": ["CMOCCUR", "CMSTAT"]}, {"SDTMDOM": ["CM"], "CDASHVAR": "CMONGO", "SDTMVAR": ["CMENRTPT"]}, {"SDTMDOM": ["CM"], "CDASHVAR": "CMPREP", "SDTMVAR": ["CMPREP"]}, {"SDTMDOM": ["CM"], "CDASHVAR": "CMPRESP", "SDTMVAR": ["CMPRESP"]}, {"SDTMDOM": ["CM"], "CDASHVAR": "CMRESTRT", "SDTMVAR": ["CMRESTRT"]}, {"SDTMDOM": ["CM"], "CDASHVAR": "CMRESTRT_TRTRSN_02", "SDTMVAR": ["CMRESTRT"]}, {"SDTMDOM": ["CM"], "CDASHVAR": "CMROUTE", "SDTMVAR": ["CMROUTE"]}, {"SDTMDOM": ["CM"], "CDASHVAR": "CMROUTE_01", "SDTMVAR": ["CMROUTE"]}, {"SDTMDOM": ["CM"], "CDASHVAR": "CMRPDAT", "SDTMVAR": ["CMRPDTC"]}, {"SDTMDOM": ["CM"], "CDASHVAR": "CMSCAT", "SDTMVAR": ["CMSCAT"]}, {"SDTMDOM": ["CM"], "CDASHVAR": "CMSCAT_ONC", "SDTMVAR": ["CMSCAT"]}, {"SDTMDOM": ["CM"], "CDASHVAR": "CMSPID", "SDTMVAR": ["CMSPID"]}, {"SDTMDOM": ["CM"], "CDASHVAR": "CMSSCAT", "SDTMVAR": ["CMSSCAT"]}, {"SDTMDOM": ["CM"], "CDASHVAR": "CMSTDAT", "SDTMVAR": ["CMSTDTC"]}, {"SDTMDOM": ["CM"], "CDASHVAR": "CMTRT", "SDTMVAR": ["CMTRT"]}, {"SDTMDOM": ["DD", "DM", "DS"], "CDASHVAR": "DDDAT", "SDTMVAR": ["DDDTC", "DSSTDTC", "DTHDTC"]}, {"SDTMDOM": ["DD", "DS"], "CDASHVAR": "DDORRES", "SDTMVAR": ["DDORRES", "DDSTRESC", "DSTERM"]}, {"SDTMDOM": ["DD", "DS"], "CDASHVAR": "DDORRESP", "SDTMVAR": ["DDORRES", "DSTERM"]}, {"SDTMDOM": ["DS"], "CDASHVAR": "DSAENO", "SDTMVAR": ["DSAENO"]}, {"SDTMDOM": ["DS"], "CDASHVAR": "DSBKAEN2", "SDTMVAR": ["DSBKAEN2"]}, {"SDTMDOM": ["DS"], "CDASHVAR": "DSBKAEN3", "SDTMVAR": ["DSBKAEN3"]}, {"SDTMDOM": ["DS"], "CDASHVAR": "DSBKAENO", "SDTMVAR": ["DSBKAENO"]}, {"SDTMDOM": ["DS"], "CDASHVAR": "DSBKMETH", "SDTMVAR": ["DSBKMETH"]}, {"SDTMDOM": ["DS"], "CDASHVAR": "DSBKTRT", "SDTMVAR": ["DSBKTRT"]}, {"SDTMDOM": ["DS"], "CDASHVAR": "DSBKTRT2", "SDTMVAR": ["DSBKTRT2"]}, {"SDTMDOM": ["DS"], "CDASHVAR": "DSBKTRT3", "SDTMVAR": ["DSBKTRT3"]}, {"SDTMDOM": ["DS"], "CDASHVAR": "DSBKWHO", "SDTMVAR": ["DSBKWHO"]}, {"SDTMDOM": ["DS"], "CDASHVAR": "DSCAT", "SDTMVAR": ["DSCAT"]}, {"SDTMDOM": ["DS"], "CDASHVAR": "DSCONT", "SDTMVAR": ["DSCONT", "DSDECOD"]}, {"SDTMDOM": ["DS"], "CDASHVAR": "DSDECOD_DSCBBRKR", "SDTMVAR": ["DSTERM"]}, {"SDTMDOM": ["DS"], "CDASHVAR": "DSDECOD_INFCST", "SDTMVAR": ["DSDECOD"]}, {"SDTMDOM": ["DS"], "CDASHVAR": "DSDECOD_NCOMPLT_03", "SDTMVAR": ["DSDECOD", "DSTERM"]}, {"SDTMDOM": ["DS"], "CDASHVAR": "DSDECOD_NCOMPLT_END03", "SDTMVAR": ["DSDECOD", "DSTERM"]}, {"SDTMDOM": ["DS"], "CDASHVAR": "DSDECOD_NCOMPLT_TS04", "SDTMVAR": ["DSDECOD", "DSTERM"]}, {"SDTMDOM": ["DS"], "CDASHVAR": "DSNEXT", "SDTMVAR": ["DSNEXT"]}, {"SDTMDOM": ["DM"], "CDASHVAR": "DSPRSTUD", "SDTMVAR": ["DSPRSTUD"]}, {"SDTMDOM": ["DM"], "CDASHVAR": "DSPRSUBJ", "SDTMVAR": ["DSPRSUBJ"]}, {"SDTMDOM": ["DS"], "CDASHVAR": "DSSCAT", "SDTMVAR": ["DSSCAT"]}, {"SDTMDOM": ["DM", "DS", "IVRS"], "CDASHVAR": "DSSTDAT", "SDTMVAR": ["DSDTC", "DSSTADTC", "DSSTDTC", "RFICDTC"]}, {"SDTMDOM": ["DS", "IVRS"], "CDASHVAR": "DSSTTIM", "SDTMVAR": ["DSSTADTC", "DSSTDTC"]}, {"SDTMDOM": ["DS"], "CDASHVAR": "DSSUBREA", "SDTMVAR": ["DSTERM"]}, {"SDTMDOM": ["DS"], "CDASHVAR": "DSTERM", "SDTMVAR": ["DSTERM"]}, {"SDTMDOM": ["EG"], "CDASHVAR": "EGAENO", "SDTMVAR": ["EGAENO"]}, {"SDTMDOM": ["EG"], "CDASHVAR": "EGCLSIG", "SDTMVAR": ["EGCLSIG"]}, {"SDTMDOM": ["EG"], "CDASHVAR": "EGDAT", "SDTMVAR": ["EGDTC"]}, {"SDTMDOM": ["EG"], "CDASHVAR": "EGFIND", "SDTMVAR": ["EGORRES", "EGSTRESC"]}, {"SDTMDOM": ["EG"], "CDASHVAR": "EGINTP", "SDTMVAR": ["EGORRES", "EGSTRESC"]}, {"SDTMDOM": ["EG"], "CDASHVAR": "EGMETHOD", "SDTMVAR": ["EGMETHOD"]}, {"SDTMDOM": ["EG"], "CDASHVAR": "EGORRES", "SDTMVAR": ["EGORRES", "EGSTRESC", "EGSTRESN"]}, {"SDTMDOM": ["EG"], "CDASHVAR": "EGORRESU", "SDTMVAR": ["EGORRESU", "EGSTRESU"]}, {"SDTMDOM": ["EG"], "CDASHVAR": "EGORUSP", "SDTMVAR": ["EGORRESU", "EGSTRESU"]}, {"SDTMDOM": ["EG"], "CDASHVAR": "EGPOS", "SDTMVAR": ["EGPOS"]}, {"SDTMDOM": ["EG"], "CDASHVAR": "EGSPID", "SDTMVAR": ["EGSPID"]}, {"SDTMDOM": ["EG"], "CDASHVAR": "EGSTAT", "SDTMVAR": ["EGSTAT"]}, {"SDTMDOM": ["EG"], "CDASHVAR": "EGTEST", "SDTMVAR": ["EGTEST"]}, {"SDTMDOM": ["EG"], "CDASHVAR": "EGTESTCD", "SDTMVAR": ["EGTESTCD"]}, {"SDTMDOM": ["EG"], "CDASHVAR": "EGTIM", "SDTMVAR": ["EGDTC"]}, {"SDTMDOM": ["EG"], "CDASHVAR": "EGTPT", "SDTMVAR": ["EGTPT"]}, {"SDTMDOM": ["EG"], "CDASHVAR": "EGTPTNUM", "SDTMVAR": ["EGTPTNUM"]}, {"SDTMDOM": ["DS"], "CDASHVAR": "EPOCH", "SDTMVAR": ["EPOCH"]}, {"SDTMDOM": ["DM"], "CDASHVAR": "ETHNIC", "SDTMVAR": ["ETHNIC"]}, {"SDTMDOM": ["EC", "EX"], "CDASHVAR": "EXCAT", "SDTMVAR": ["ECCAT", "EXCAT"]}, {"SDTMDOM": ["EC", "EX"], "CDASHVAR": "EXDOSADJ", "SDTMVAR": ["ECDOSADJ", "EXDOSADJ"]}, {"SDTMDOM": ["EC", "EX"], "CDASHVAR": "EXDOSTOT", "SDTMVAR": ["ECDOSE", "ECDOSFRQ", "EXDOSE", "EXDOSFRQ"]}, {"SDTMDOM": ["EC", "EX"], "CDASHVAR": "EXDOSU", "SDTMVAR": ["ECDOSU", "EXDOSU"]}, {"SDTMDOM": ["EC"], "CDASHVAR": "EXDSNTTK", "SDTMVAR": ["ECOCCUR", "ECPRESP"]}, {"SDTMDOM": ["EC", "EX"], "CDASHVAR": "EXDSTXT", "SDTMVAR": ["ECDOSE", "ECDOSTXT", "EXDOSE", "EXDOSTXT"]}, {"SDTMDOM": ["EC", "EX"], "CDASHVAR": "EXENDAT", "SDTMVAR": ["ECENDTC", "ECSTDTC", "EXENDTC", "EXSTDTC"]}, {"SDTMDOM": ["EC", "EX"], "CDASHVAR": "EXENDAY", "SDTMVAR": ["ECENDAY", "EXENDAY"]}, {"SDTMDOM": ["EC", "EX"], "CDASHVAR": "EXENTIM", "SDTMVAR": ["ECENDTC", "EXENDTC"]}, {"SDTMDOM": ["EC", "EX"], "CDASHVAR": "EXENTPT", "SDTMVAR": ["ECENTPT", "EXENTPT"]}, {"SDTMDOM": ["EC", "EX"], "CDASHVAR": "EXETPTNM", "SDTMVAR": ["ECETPTNM", "EXETPTNM"]}, {"SDTMDOM": ["EC"], "CDASHVAR": "EXPDOSE", "SDTMVAR": ["ECDOSE"]}, {"SDTMDOM": ["EC"], "CDASHVAR": "EXPDOSEU", "SDTMVAR": ["ECDOSEU"]}, {"SDTMDOM": ["EC"], "CDASHVAR": "EXPDOST", "SDTMVAR": ["ECDOSE", "ECDOSFRQ"]}, {"SDTMDOM": ["EC", "EX"], "CDASHVAR": "EXPERIOD", "SDTMVAR": ["ECPERIOD", "EXPERIOD"]}, {"SDTMDOM": ["EC", "EX"], "CDASHVAR": "EXREFID", "SDTMVAR": ["ECREFID", "EXREFID"]}, {"SDTMDOM": ["EC", "EX"], "CDASHVAR": "EXRFID2", "SDTMVAR": ["ECREFID2", "EXREFID2"]}, {"SDTMDOM": ["EC", "EX"], "CDASHVAR": "EXRFID3", "SDTMVAR": ["ECREFID3", "EXREFID3"]}, {"SDTMDOM": ["EC", "EX"], "CDASHVAR": "EXRFID4", "SDTMVAR": ["ECREFID4", "EXREFID4"]}, {"SDTMDOM": ["EC", "EX"], "CDASHVAR": "EXRFID5", "SDTMVAR": ["ECREFID5", "EXREFID5"]}, {"SDTMDOM": ["EC", "EX"], "CDASHVAR": "EXROUTE", "SDTMVAR": ["ECROUTE", "EXROUTE"]}, {"SDTMDOM": ["EC", "EX"], "CDASHVAR": "EXSTDAT", "SDTMVAR": ["ECSTDTC", "EXSTDTC"]}, {"SDTMDOM": ["EC", "EX"], "CDASHVAR": "EXSTDAY", "SDTMVAR": ["ECSTDAY", "EXSTDAY"]}, {"SDTMDOM": ["EC", "EX"], "CDASHVAR": "EXSTTIM", "SDTMVAR": ["ECSTDTC", "EXSTDTC"]}, {"SDTMDOM": ["EC", "EX"], "CDASHVAR": "EXTPT", "SDTMVAR": ["ECTPT", "EXTPT"]}, {"SDTMDOM": ["EC", "EX"], "CDASHVAR": "EXTPTNUM", "SDTMVAR": ["ECTPTNUM", "EXTPTNUM"]}, {"SDTMDOM": ["EC", "EX"], "CDASHVAR": "EXTRT", "SDTMVAR": ["ECTRT", "EXTRT"]}, {"SDTMDOM": ["FAAE"], "CDASHVAR": "FAAENO", "SDTMVAR": ["FAAENO"]}, {"SDTMDOM": ["FACE"], "CDASHVAR": "FACAT", "SDTMVAR": ["FACAT"]}, {"SDTMDOM": ["FACE"], "CDASHVAR": "FADAT", "SDTMVAR": ["FADTC"]}, {"SDTMDOM": ["FAAE", "FACE"], "CDASHVAR": "FAOBJ", "SDTMVAR": ["FAOBJ"]}, {"SDTMDOM": ["FAAE", "FACE"], "CDASHVAR": "FAORRES", "SDTMVAR": ["FAORRES", "FASTRESC"]}, {"SDTMDOM": ["FACE"], "CDASHVAR": "FASPID", "SDTMVAR": ["FAREFID", "FASPID"]}, {"SDTMDOM": ["IE"], "CDASHVAR": "IECAT", "SDTMVAR": ["IECAT", "IEORRES", "IESTRESC"]}, {"SDTMDOM": ["IE"], "CDASHVAR": "IETESTCD", "SDTMVAR": ["IETESTCD"]}, {"SDTMDOM": ["IE"], "CDASHVAR": "IEVERS", "SDTMVAR": ["IEVERS"]}, {"SDTMDOM": ["LB"], "CDASHVAR": "LBCAT", "SDTMVAR": ["LBCAT"]}, {"SDTMDOM": ["LB"], "CDASHVAR": "LBCOND", "SDTMVAR": ["LBCOND"]}, {"SDTMDOM": ["LB"], "CDASHVAR": "LBDAT", "SDTMVAR": ["LBDTC"]}, {"SDTMDOM": ["LB"], "CDASHVAR": "LBMETHOD", "SDTMVAR": ["LBMETHOD"]}, {"SDTMDOM": ["LB"], "CDASHVAR": "LBORRES", "SDTMVAR": ["LBORRES"]}, {"SDTMDOM": ["LB"], "CDASHVAR": "LBORRESU", "SDTMVAR": ["LBORRESU"]}, {"SDTMDOM": ["LB"], "CDASHVAR": "LBORRES_LBQUAL", "SDTMVAR": ["LBORRES"]}, {"SDTMDOM": ["LB"], "CDASHVAR": "LBRANTYP", "SDTMVAR": ["LBRANTYP"]}, {"SDTMDOM": ["LB"], "CDASHVAR": "LBSCAT", "SDTMVAR": ["LBSCAT"]}, {"SDTMDOM": ["LB"], "CDASHVAR": "LBSINRHI", "SDTMVAR": ["LBSTNRHI"]}, {"SDTMDOM": ["LB"], "CDASHVAR": "LBSINRLO", "SDTMVAR": ["LBSTNRLO"]}, {"SDTMDOM": ["LB"], "CDASHVAR": "LBSONRHI", "SDTMVAR": ["LBSONRHI"]}, {"SDTMDOM": ["LB"], "CDASHVAR": "LBSONRLO", "SDTMVAR": ["LBSONRLO"]}, {"SDTMDOM": ["LB"], "CDASHVAR": "LBSPEC", "SDTMVAR": ["LBSPEC"]}, {"SDTMDOM": ["LB"], "CDASHVAR": "LBSTAT", "SDTMVAR": ["LBSTAT"]}, {"SDTMDOM": ["LB"], "CDASHVAR": "LBSTRESC", "SDTMVAR": ["LBSTRESC"]}, {"SDTMDOM": ["LB"], "CDASHVAR": "LBSTRESN", "SDTMVAR": ["LBSTRESN"]}, {"SDTMDOM": ["LB"], "CDASHVAR": "LBSTRESU", "SDTMVAR": ["LBSTRESU"]}, {"SDTMDOM": ["LB"], "CDASHVAR": "LBTEST", "SDTMVAR": ["LBTEST"]}, {"SDTMDOM": ["LB"], "CDASHVAR": "LBTESTCD", "SDTMVAR": ["LBTESTCD"]}, {"SDTMDOM": ["LB"], "CDASHVAR": "LBTIM", "SDTMVAR": ["LBDTC"]}, {"SDTMDOM": ["LB"], "CDASHVAR": "LBTPT", "SDTMVAR": ["LBTPT"]}, {"SDTMDOM": ["LB"], "CDASHVAR": "LBTPTNUM", "SDTMVAR": ["LBTPTNUM"]}, {"SDTMDOM": ["MH"], "CDASHVAR": "MHCAT", "SDTMVAR": ["MHCAT"]}, {"SDTMDOM": ["MH"], "CDASHVAR": "MHENDAT", "SDTMVAR": ["MHENDTC"]}, {"SDTMDOM": ["MH"], "CDASHVAR": "MHOCCUR", "SDTMVAR": ["MHOCCUR"]}, {"SDTMDOM": ["MH"], "CDASHVAR": "MHONGO", "SDTMVAR": ["MHENRTPT"]}, {"SDTMDOM": ["MH"], "CDASHVAR": "MHPRESP", "SDTMVAR": ["MHPRESP"]}, {"SDTMDOM": ["MH"], "CDASHVAR": "MHSPID", "SDTMVAR": ["MHSPID"]}, {"SDTMDOM": ["MH"], "CDASHVAR": "MHSTDAT", "SDTMVAR": ["MHSTDTC"]}, {"SDTMDOM": ["MH"], "CDASHVAR": "MHTERM", "SDTMVAR": ["MHTERM"]}, {"SDTMDOM": ["Out of Scope", "PC"], "CDASHVAR": "PCCAT", "SDTMVAR": ["PCCAT"]}, {"SDTMDOM": ["Out of Scope", "PC"], "CDASHVAR": "PCPERIOD", "SDTMVAR": ["PCPERIOD"]}, {"SDTMDOM": ["Out of Scope", "PC"], "CDASHVAR": "PCREFID", "SDTMVAR": ["PCREFID"]}, {"SDTMDOM": ["Out of Scope", "PC"], "CDASHVAR": "PCSPEC", "SDTMVAR": ["PCSPEC"]}, {"SDTMDOM": ["PC"], "CDASHVAR": "PCSTAT", "SDTMVAR": ["PCSTAT"]}, {"SDTMDOM": ["Out of Scope", "PC"], "CDASHVAR": "PCTPT", "SDTMVAR": ["PCTPT"]}, {"SDTMDOM": ["Out of Scope", "PC"], "CDASHVAR": "PCTPTNUM", "SDTMVAR": ["PCTPTNUM"]}, {"SDTMDOM": ["PE"], "CDASHVAR": "PEAENO", "SDTMVAR": ["PEAENO"]}, {"SDTMDOM": ["MO", "PE"], "CDASHVAR": "PECAT", "SDTMVAR": ["MOCAT", "PECAT"]}, {"SDTMDOM": ["PE"], "CDASHVAR": "PECLSIG", "SDTMVAR": ["PECLSIG"]}, {"SDTMDOM": ["MO", "PE"], "CDASHVAR": "PEDAT", "SDTMVAR": ["MODTC", "PEDTC"]}, {"SDTMDOM": ["PE"], "CDASHVAR": "PEDESC", "SDTMVAR": ["PEORRES"]}, {"SDTMDOM": ["PE"], "CDASHVAR": "PEFNDYN", "SDTMVAR": ["PEORRES", "PESTRESC"]}, {"SDTMDOM": ["MO", "PE"], "CDASHVAR": "PEMETHOD", "SDTMVAR": ["MOMETHOD", "PEMETHOD"]}, {"SDTMDOM": ["MO", "PE"], "CDASHVAR": "PEORRES", "SDTMVAR": ["MOORRES", "MOSTRESC", "PEORRES", "PESTRESC"]}, {"SDTMDOM": ["MO", "PE"], "CDASHVAR": "PEORRES1", "SDTMVAR": ["MOORRES", "MOSTRESC", "PEORRES", "PESTRESC"]}, {"SDTMDOM": ["MO", "PE"], "CDASHVAR": "PEORRESU", "SDTMVAR": ["MOORRESU", "MOSTRESU", "PEORRESU", "PESTRESU"]}, {"SDTMDOM": ["MO", "PE"], "CDASHVAR": "PEPERF", "SDTMVAR": ["MOSTAT", "PESTAT", "PETESTCD"]}, {"SDTMDOM": ["PE"], "CDASHVAR": "PERES", "SDTMVAR": ["PEORRES", "PESTRESC"]}, {"SDTMDOM": ["MO", "PE"], "CDASHVAR": "PESCAT", "SDTMVAR": ["MOSCAT", "PESCAT"]}, {"SDTMDOM": ["MO", "PE"], "CDASHVAR": "PESTAT", "SDTMVAR": ["MOSTAT", "PESTAT"]}, {"SDTMDOM": ["PE"], "CDASHVAR": "PETEST", "SDTMVAR": ["PETEST"]}, {"SDTMDOM": ["MO", "PE"], "CDASHVAR": "PETEST_LOC_05", "SDTMVAR": ["MOTEST", "PETEST"]}, {"SDTMDOM": ["PE"], "CDASHVAR": "PETIM", "SDTMVAR": ["PEDTC"]}, {"SDTMDOM": ["MO", "PE"], "CDASHVAR": "PETPT", "SDTMVAR": ["MOTPT", "PETPT"]}, {"SDTMDOM": ["PR"], "CDASHVAR": "PRAENO", "SDTMVAR": ["PRAENO"]}, {"SDTMDOM": ["PR"], "CDASHVAR": "PRANA", "SDTMVAR": ["PRANA"]}, {"SDTMDOM": ["MO", "PR"], "CDASHVAR": "PRCAT", "SDTMVAR": ["MOCAT", "PRCAT"]}, {"SDTMDOM": ["MO"], "CDASHVAR": "PRCLSIG", "SDTMVAR": ["MOCLSIG"]}, {"SDTMDOM": ["MO"], "CDASHVAR": "PRCLSIGC", "SDTMVAR": ["MOCLSIGC"]}, {"SDTMDOM": ["MO", "PR"], "CDASHVAR": "PRDAT", "SDTMVAR": ["MODTC", "PRDTC", "PRSTDTC"]}, {"SDTMDOM": ["PR"], "CDASHVAR": "PRDOSE", "SDTMVAR": ["PRDOSE"]}, {"SDTMDOM": ["PR"], "CDASHVAR": "PRDOSU_UNIT_01", "SDTMVAR": ["PRDOSU"]}, {"SDTMDOM": ["PR"], "CDASHVAR": "PRDOSU_UNIT_02", "SDTMVAR": ["PRDOSU"]}, {"SDTMDOM": ["PR"], "CDASHVAR": "PRENDAT", "SDTMVAR": ["PRENDTC"]}, {"SDTMDOM": ["PR"], "CDASHVAR": "PRINDC", "SDTMVAR": ["PRTRTINT"]}, {"SDTMDOM": ["PR"], "CDASHVAR": "PRISO", "SDTMVAR": ["PRISO"]}, {"SDTMDOM": ["PR"], "CDASHVAR": "PRLOC", "SDTMVAR": ["PRLOC"]}, {"SDTMDOM": ["MO", "PR"], "CDASHVAR": "PRLOC_TUW", "SDTMVAR": ["MOLOC", "PRLOC"]}, {"SDTMDOM": ["PR"], "CDASHVAR": "PRMHNO", "SDTMVAR": ["PRMHNO"]}, {"SDTMDOM": ["PR"], "CDASHVAR": "PROCCUR", "SDTMVAR": ["PROCCUR"]}, {"SDTMDOM": ["PR"], "CDASHVAR": "PRONGO", "SDTMVAR": ["PRENRTPT"]}, {"SDTMDOM": ["PR"], "CDASHVAR": "PRORRES", "SDTMVAR": ["PRNTRP"]}, {"SDTMDOM": ["PR"], "CDASHVAR": "PRORRESU", "SDTMVAR": ["PRNTRPU"]}, {"SDTMDOM": ["MO"], "CDASHVAR": "PROSP", "SDTMVAR": ["MOORRES", "MOSTRESC"]}, {"SDTMDOM": ["PR"], "CDASHVAR": "PRPRESP", "SDTMVAR": ["PRPRESP"]}, {"SDTMDOM": ["PR"], "CDASHVAR": "PRREAS", "SDTMVAR": ["PRINDC"]}, {"SDTMDOM": ["MO"], "CDASHVAR": "PRRES", "SDTMVAR": ["MOORRES", "MOSTRESC"]}, {"SDTMDOM": ["MO"], "CDASHVAR": "PRRES_NORABN", "SDTMVAR": ["MOORRES", "MOSTRESC"]}, {"SDTMDOM": ["MO", "PR"], "CDASHVAR": "PRSCAT", "SDTMVAR": ["MOSCAT", "PRSCAT"]}, {"SDTMDOM": ["MO", "PR"], "CDASHVAR": "PRSCAT_PRSCATEG", "SDTMVAR": ["MOSCAT", "PRSCAT"]}, {"SDTMDOM": ["MO", "PR"], "CDASHVAR": "PRSTAT", "SDTMVAR": ["MOSTAT", "PRSTAT"]}, {"SDTMDOM": ["PR"], "CDASHVAR": "PRSTDAT", "SDTMVAR": ["PRSTDTC"]}, {"SDTMDOM": ["MO", "PR"], "CDASHVAR": "PRTIM", "SDTMVAR": ["MODTC", "PRSTDTC"]}, {"SDTMDOM": ["PR"], "CDASHVAR": "PRTPT", "SDTMVAR": ["PRTPT"]}, {"SDTMDOM": ["MO", "PR"], "CDASHVAR": "PRTRT", "SDTMVAR": ["MOMETHOD", "PRTRT"]}, {"SDTMDOM": ["MO", "PR"], "CDASHVAR": "PRTRTSP", "SDTMVAR": ["MOMETHOD", "PRTRT"]}, {"SDTMDOM": ["MO", "PR"], "CDASHVAR": "PRTRT_OP", "SDTMVAR": ["MOMETHOD", "PRTRT"]}, {"SDTMDOM": ["PR"], "CDASHVAR": "PRTRT_TRANSTYP", "SDTMVAR": ["PRTRT"]}, {"SDTMDOM": ["PR"], "CDASHVAR": "PRTRT_WITH_CODING", "SDTMVAR": ["PRTRT"]}, {"SDTMDOM": ["MO"], "CDASHVAR": "PRTUREL", "SDTMVAR": ["MOORRES", "MOSTRESC"]}, {"SDTMDOM": ["PR"], "CDASHVAR": "PRTYPSP", "SDTMVAR": ["PRSPEOTH"]}, {"SDTMDOM": ["PR"], "CDASHVAR": "PRTYP_LOC_06", "SDTMVAR": ["PRSPEC"]}, {"SDTMDOM": ["PR"], "CDASHVAR": "PRYN", "SDTMVAR": ["PROCCUR", "PRPRESP"]}, {"SDTMDOM": ["QS", "QSEG"], "CDASHVAR": "QSCAT", "SDTMVAR": ["QSCAT"]}, {"SDTMDOM": ["QS", "QSEG"], "CDASHVAR": "QSDAT", "SDTMVAR": ["QSDTC"]}, {"SDTMDOM": ["QS", "QSEG"], "CDASHVAR": "QSORRES", "SDTMVAR": ["QSORRES", "QSSTRESC", "QSSTRESN"]}, {"SDTMDOM": ["QSEG"], "CDASHVAR": "QSTESTCD_ECOG1TC", "SDTMVAR": ["QSTESTCD"]}, {"SDTMDOM": ["QS"], "CDASHVAR": "QSTESTCD_KPSSTC", "SDTMVAR": ["QSTESTCD"]}, {"SDTMDOM": ["QSEG"], "CDASHVAR": "QSTEST_ECOG1TN", "SDTMVAR": ["QSTEST"]}, {"SDTMDOM": ["QS"], "CDASHVAR": "QSTEST_KPSSTN", "SDTMVAR": ["QSTEST"]}, {"SDTMDOM": ["QS", "QSEG"], "CDASHVAR": "QSYN", "SDTMVAR": ["QSSTAT"]}, {"SDTMDOM": ["DM"], "CDASHVAR": "RAIAN", "SDTMVAR": ["RACE"]}, {"SDTMDOM": ["DM"], "CDASHVAR": "RASIAN", "SDTMVAR": ["RACE"]}, {"SDTMDOM": ["DM"], "CDASHVAR": "RBLACK", "SDTMVAR": ["RACE"]}, {"SDTMDOM": ["IVRS"], "CDASHVAR": "RDALDAT", "SDTMVAR": ["RDALDTC"]}, {"SDTMDOM": ["IVRS"], "CDASHVAR": "RDALGDAT", "SDTMVAR": ["RDALGDTC"]}, {"SDTMDOM": ["IVRS"], "CDASHVAR": "RDALGTIM", "SDTMVAR": ["RDALGDTC"]}, {"SDTMDOM": ["IVRS"], "CDASHVAR": "RDALTIM", "SDTMVAR": ["RDALDTC"]}, {"SDTMDOM": ["IVRS"], "CDASHVAR": "RDARM", "SDTMVAR": ["RDARM"]}, {"SDTMDOM": ["IVRS"], "CDASHVAR": "RDBKDAT", "SDTMVAR": ["RDBKDDTC"]}, {"SDTMDOM": ["IVRS"], "CDASHVAR": "RDBKUNB", "SDTMVAR": ["RDBKUNB"]}, {"SDTMDOM": ["IVRS"], "CDASHVAR": "RDBKWHO", "SDTMVAR": ["RDBKWHO"]}, {"SDTMDOM": ["IVRS"], "CDASHVAR": "RDBLKNB", "SDTMVAR": ["RDBLKNB"]}, {"SDTMDOM": ["IVRS"], "CDASHVAR": "RDGROUP1", "SDTMVAR": ["RDGROUP1"]}, {"SDTMDOM": ["IVRS"], "CDASHVAR": "RDGROUP2", "SDTMVAR": ["RDGROUP2"]}, {"SDTMDOM": ["IVRS"], "CDASHVAR": "RDGROUP3", "SDTMVAR": ["RDGROUP3"]}, {"SDTMDOM": ["IVRS"], "CDASHVAR": "RDRAND", "SDTMVAR": ["RDRAND"]}, {"SDTMDOM": ["IVRS"], "CDASHVAR": "RDSEQNB", "SDTMVAR": ["RDSEQNB"]}, {"SDTMDOM": ["IVRS"], "CDASHVAR": "RDSIDE", "SDTMVAR": ["RDSIDE"]}, {"SDTMDOM": ["DM", "IVRS"], "CDASHVAR": "RDSTRAT1", "SDTMVAR": ["RDSTRAT1", "STRATUM"]}, {"SDTMDOM": ["DM", "IVRS"], "CDASHVAR": "RDSTRAT2", "SDTMVAR": ["RDSTRAT2", "STRATUM2"]}, {"SDTMDOM": ["DM", "IVRS"], "CDASHVAR": "RDSTRAT3", "SDTMVAR": ["RDSTRAT3", "STRATUM3"]}, {"SDTMDOM": ["DM", "IVRS"], "CDASHVAR": "RDSTRAT4", "SDTMVAR": ["RDSTRAT4", "STRATUM4"]}, {"SDTMDOM": ["DM", "IVRS"], "CDASHVAR": "RDSTRAT5", "SDTMVAR": ["RDSTRAT5", "STRATUM5"]}, {"SDTMDOM": ["IVRS"], "CDASHVAR": "RDTTCAT", "SDTMVAR": ["RDTTCAT"]}, {"SDTMDOM": ["IVRS"], "CDASHVAR": "RDTTNBX", "SDTMVAR": ["RDTTNBX"]}, {"SDTMDOM": ["IVRS"], "CDASHVAR": "RDVISREF", "SDTMVAR": ["RDVISREF"]}, {"SDTMDOM": ["DM"], "CDASHVAR": "RNHOPI", "SDTMVAR": ["RACE"]}, {"SDTMDOM": ["DM"], "CDASHVAR": "RNREP", "SDTMVAR": ["RACE"]}, {"SDTMDOM": ["RS"], "CDASHVAR": "RSCAT", "SDTMVAR": ["RSCAT"]}, {"SDTMDOM": ["RS"], "CDASHVAR": "RSDAT", "SDTMVAR": ["RSDTC"]}, {"SDTMDOM": ["RS"], "CDASHVAR": "RSEVAL", "SDTMVAR": ["RSEVAL"]}, {"SDTMDOM": ["RS"], "CDASHVAR": "RSNESP", "SDTMVAR": ["RSNESP"]}, {"SDTMDOM": ["RS"], "CDASHVAR": "RSNL", "SDTMVAR": ["RSNL"]}, {"SDTMDOM": ["RS"], "CDASHVAR": "RSORRES_01", "SDTMVAR": ["RSORRES", "RSSTRESC"]}, {"SDTMDOM": ["RS"], "CDASHVAR": "RSORRES_OOR", "SDTMVAR": ["RSORRES", "RSSTRESC"]}, {"SDTMDOM": ["RS"], "CDASHVAR": "RSPDSP", "SDTMVAR": ["RSLOC1"]}, {"SDTMDOM": ["RS"], "CDASHVAR": "RSTEST", "SDTMVAR": ["RSTEST"]}, {"SDTMDOM": ["DM"], "CDASHVAR": "RUNK", "SDTMVAR": ["RACE"]}, {"SDTMDOM": ["DM"], "CDASHVAR": "RWHITE", "SDTMVAR": ["RACE"]}, {"SDTMDOM": ["DM"], "CDASHVAR": "SEX", "SDTMVAR": ["SEX"]}, {"SDTMDOM": ["SS"], "CDASHVAR": "SSDAT", "SDTMVAR": ["DSSTDTC", "SSDTC"]}, {"SDTMDOM": ["DS", "SS"], "CDASHVAR": "SSMTHDCT", "SDTMVAR": ["DSMETHOD", "SSMTHDCT"]}, {"SDTMDOM": ["DS", "SS"], "CDASHVAR": "SSMTHDSP", "SDTMVAR": ["DSMTHOTH", "SSMTHOTH"]}, {"SDTMDOM": ["DS", "SS"], "CDASHVAR": "SSORRES", "SDTMVAR": ["DSTERM", "SSORRES", "SSSTRESC"]}, {"SDTMDOM": ["DM"], "CDASHVAR": "SUBJID", "SDTMVAR": ["COUNTRY", "SUBJID"]}, {"SDTMDOM": ["SU"], "CDASHVAR": "SUCDUR", "SDTMVAR": ["SUDUR"]}, {"SDTMDOM": ["SU"], "CDASHVAR": "SUDOSFRQ", "SDTMVAR": ["SUDOSFRQ"]}, {"SDTMDOM": ["SU"], "CDASHVAR": "SUDOSFRQ_SU_ALC", "SDTMVAR": ["SUDOSFRQ", "SUOCCUR"]}, {"SDTMDOM": ["SU"], "CDASHVAR": "SUDOSU", "SDTMVAR": ["SUDOSU"]}, {"SDTMDOM": ["SU"], "CDASHVAR": "SUDSTXT", "SDTMVAR": ["SUDOSE", "SUDOSTXT"]}, {"SDTMDOM": ["SU"], "CDASHVAR": "SUDSTXT_SU_ALC", "SDTMVAR": ["SUDOSTXT"]}, {"SDTMDOM": ["SU"], "CDASHVAR": "SUENDAT", "SDTMVAR": ["SUENDTC"]}, {"SDTMDOM": ["SU"], "CDASHVAR": "SUNCF", "SDTMVAR": ["SUNCF", "SUOCCUR"]}, {"SDTMDOM": ["SU"], "CDASHVAR": "SUSTDAT", "SDTMVAR": ["SUSTDTC"]}, {"SDTMDOM": ["SU"], "CDASHVAR": "SUTRT", "SDTMVAR": ["SUPRESP", "SUTRT"]}, {"SDTMDOM": ["TR", "TU"], "CDASHVAR": "TRDAT", "SDTMVAR": ["TRDTC", "TUDTC"]}, {"SDTMDOM": ["TR", "TU"], "CDASHVAR": "TREVAL", "SDTMVAR": ["TREVAL", "TUEVAL"]}, {"SDTMDOM": ["TR", "TU"], "CDASHVAR": "TRGRPID", "SDTMVAR": ["TRGRPID", "TUORRES", "TUSTRESC"]}, {"SDTMDOM": ["TR", "TU"], "CDASHVAR": "TRLNKID", "SDTMVAR": ["TRLNKID", "TULNKID"]}, {"SDTMDOM": ["TU"], "CDASHVAR": "TRLOC", "SDTMVAR": ["TULOC"]}, {"SDTMDOM": ["TU"], "CDASHVAR": "TRLOC_FDG", "SDTMVAR": ["TULOC"]}, {"SDTMDOM": ["TR", "TU"], "CDASHVAR": "TRMETHOD", "SDTMVAR": ["TRMETHOD", "TUMETHOD"]}, {"SDTMDOM": ["TR", "TU"], "CDASHVAR": "TRMETSP", "SDTMVAR": ["TRMETOTH", "TUMETOTH"]}, {"SDTMDOM": ["TR"], "CDASHVAR": "TRORRES", "SDTMVAR": ["TRORRES", "TRSPID", "TRSTRESC", "TRSTRESN"]}, {"SDTMDOM": ["TR"], "CDASHVAR": "TRORRES2", "SDTMVAR": ["TRORRES", "TRSTRESC", "TRSTRESN"]}, {"SDTMDOM": ["TR"], "CDASHVAR": "TRORRES2_FDG", "SDTMVAR": ["TRORRES", "TRSTRESC", "TRSTRESN"]}, {"SDTMDOM": ["TR"], "CDASHVAR": "TRORRES3", "SDTMVAR": ["TRORRES", "TRSTRESC", "TRSTRESN"]}, {"SDTMDOM": ["TR"], "CDASHVAR": "TRORRESU", "SDTMVAR": ["TRORRESU", "TRSTRESU"]}, {"SDTMDOM": ["TR"], "CDASHVAR": "TRORRES_FDG", "SDTMVAR": ["TRORRES", "TRSTRESC", "TRSTRESN", "TRTEST"]}, {"SDTMDOM": ["TR"], "CDASHVAR": "TRSTAT", "SDTMVAR": ["TRSTAT"]}, {"SDTMDOM": ["TU"], "CDASHVAR": "TRSUBLOC", "SDTMVAR": ["TULOCDTL", "TUSUBLOC"]}, {"SDTMDOM": ["TR"], "CDASHVAR": "TRTEST", "SDTMVAR": ["TRTEST"]}, {"SDTMDOM": ["TR"], "CDASHVAR": "TRYN", "SDTMVAR": ["TRORRES"]}, {"SDTMDOM": ["FARS"], "CDASHVAR": "TTATUS", "SDTMVAR": ["FAORRES", "FASTRESC"]}, {"SDTMDOM": ["FARS"], "CDASHVAR": "TTBR", "SDTMVAR": ["FAORRES", "FASTRESC"]}, {"SDTMDOM": ["FARS"], "CDASHVAR": "TTCAT", "SDTMVAR": ["FACAT"]}, {"SDTMDOM": ["FARS"], "CDASHVAR": "TTCRIT", "SDTMVAR": ["FAOBJ", "FASPID", "FATESTCD"]}, {"SDTMDOM": ["FARS"], "CDASHVAR": "TTDAT", "SDTMVAR": ["FAORRES", "FASTRESC"]}, {"SDTMDOM": ["FARS"], "CDASHVAR": "TTEXTEN", "SDTMVAR": ["FAORRES", "FASTRESC"]}, {"SDTMDOM": ["FARS"], "CDASHVAR": "TTEXTEN_NST", "SDTMVAR": ["FAORRES", "FASTRESC"]}, {"SDTMDOM": ["FARS"], "CDASHVAR": "TTORRES", "SDTMVAR": ["FAORRES", "FASTRESC"]}, {"SDTMDOM": ["FARS"], "CDASHVAR": "TTRSK", "SDTMVAR": ["FAORRES", "FASTRESC"]}, {"SDTMDOM": ["FARS"], "CDASHVAR": "TTSCAT", "SDTMVAR": ["FASCAT"]}, {"SDTMDOM": ["FARS"], "CDASHVAR": "TTYN", "SDTMVAR": ["FAORRES", "FASTRESC"]}, {"SDTMDOM": ["SV"], "CDASHVAR": "VISDAT", "SDTMVAR": ["SVENDTC", "SVSTDTC"]}, {"SDTMDOM": ["VS"], "CDASHVAR": "VSAENO", "SDTMVAR": ["VSAENO"]}, {"SDTMDOM": ["VS"], "CDASHVAR": "VSBSA", "SDTMVAR": ["VSDRVFL", "VSORRES", "VSSTRESC", "VSSTRESN"]}, {"SDTMDOM": ["VS"], "CDASHVAR": "VSBSAU", "SDTMVAR": ["VSORRESU", "VSSTRESU\n"]}, {"SDTMDOM": ["VS"], "CDASHVAR": "VSCLSIG", "SDTMVAR": ["VSCLSIG"]}, {"SDTMDOM": ["VS"], "CDASHVAR": "VSDAT", "SDTMVAR": ["VSDTC"]}, {"SDTMDOM": ["VS"], "CDASHVAR": "VSHGHT", "SDTMVAR": ["VSORRES", "VSSTRESC", "VSSTRESN"]}, {"SDTMDOM": ["VS"], "CDASHVAR": "VSHGHTU", "SDTMVAR": ["VSORRESU", "VSSTRESU", "VSSTRESU\n"]}, {"SDTMDOM": ["VS"], "CDASHVAR": "VSLOC_LOC_10", "SDTMVAR": ["VSLOC"]}, {"SDTMDOM": ["VS"], "CDASHVAR": "VSORRES", "SDTMVAR": ["VSORRES", "VSSTRESC", "VSSTRESN"]}, {"SDTMDOM": ["VS"], "CDASHVAR": "VSORRESU", "SDTMVAR": ["VSORRESU", "VSSTRESU\n"]}, {"SDTMDOM": ["VS"], "CDASHVAR": "VSPERF", "SDTMVAR": ["VSSTAT"]}, {"SDTMDOM": ["VS"], "CDASHVAR": "VSPOS", "SDTMVAR": ["VSPOS"]}, {"SDTMDOM": ["VS"], "CDASHVAR": "VSSTAT", "SDTMVAR": ["VSSTAT"]}, {"SDTMDOM": ["VS"], "CDASHVAR": "VSSTPT", "SDTMVAR": ["VSSTPT"]}, {"SDTMDOM": ["VS"], "CDASHVAR": "VSTEST", "SDTMVAR": ["VSTEST"]}, {"SDTMDOM": ["VS"], "CDASHVAR": "VSTESTCD", "SDTMVAR": ["VSTESTCD"]}, {"SDTMDOM": ["VS"], "CDASHVAR": "VSTIM", "SDTMVAR": ["VSDTC"]}, {"SDTMDOM": ["VS"], "CDASHVAR": "VSTPT", "SDTMVAR": ["VSTPT"]}], "IGCDASH": [{"CDASHQUE": "What is the study identifier?", "CDASHVAR": "STUDYID", "SDTMVAR": ["STUDYID"], "CDASHDOM": ["CO", "DM", "CM", "EC", "EX", "PR", "SU", "AE", "CE", "DS", "DV", "HO", "MH", "DA", "DD", "EG", "IE", "LB", "MI", "PC", "PE", "SC", "RP", "SR", "VS", "FA"]}, {"CDASHQUE": "What is the site identifier?", "CDASHVAR": "SITEID", "SDTMVAR": ["SITEID"], "CDASHDOM": ["CO", "DM", "CM", "EC", "EX", "PR", "SU", "AE", "CE", "DS", "DV", "HO", "MH", "DA", "DD", "EG", "IE", "LB", "MI", "PC", "PE", "SC", "RP", "SR", "VS", "FA"]}, {"CDASHQUE": "What is the subject identifier?", "CDASHVAR": "SUBJID", "SDTMVAR": ["SUBJID"], "CDASHDOM": ["CO", "DM", "CM", "EC", "EX", "PR", "SU", "AE", "CE", "DS", "DV", "HO", "MH", "DA", "DD", "EG", "IE", "LB", "MI", "PC", "PE", "SC", "RP", "SR", "VS", "FA"]}, {"CDASHQUE": "[protocol specified targeted question]", "CDASHVAR": "COVAL", "SDTMVAR": ["COVAL"], "CDASHDOM": ["CO"]}, {"CDASHQUE": "What is the subject's date of birth?", "CDASHVAR": "BRTHDAT", "SDTMVAR": ["BRTHDTC"], "CDASHDOM": ["DM"]}, {"CDASHQUE": "What is the subject's year of birth?", "CDASHVAR": "BRTHYY", "SDTMVAR": ["BRTHDTC"], "CDASHDOM": ["DM"]}, {"CDASHQUE": "What is the subject's month of birth?", "CDASHVAR": "BRTHMO", "SDTMVAR": ["BRTHDTC"], "CDASHDOM": ["DM"]}, {"CDASHQUE": "What is the subject's day of birth?", "CDASHVAR": "BRTHDD", "SDTMVAR": ["BRTHDTC"], "CDASHDOM": ["DM"]}, {"CDASHQUE": "What is the subject's time of birth?", "CDASHVAR": "BRTHTIM", "SDTMVAR": ["BRTHDTC"], "CDASHDOM": ["DM"]}, {"CDASHQUE": "What is the subject's age?", "CDASHVAR": "AGE", "SDTMVAR": ["AGE"], "CDASHDOM": ["DM"]}, {"CDASHQUE": "What is the age unit used?", "CDASHVAR": "AGEU", "SDTMVAR": ["AGEU"], "CDASHDOM": ["DM"]}, {"CDASHQUE": "What is the date of collection?", "CDASHVAR": "DMDAT", "SDTMVAR": ["DMDTC"], "CDASHDOM": ["DM"]}, {"CDASHQUE": "What is the sex of the subject?", "CDASHVAR": "SEX", "SDTMVAR": ["SEX"], "CDASHDOM": ["DM"]}, {"CDASHQUE": "Do you consider yourself Hispanic/Latino or not Hispanic/Latino?", "CDASHVAR": "ETHNIC", "SDTMVAR": ["ETHNIC"], "CDASHDOM": ["DM"]}, {"CDASHQUE": "What is the ethnicity of the subject?", "CDASHVAR": "CETHNIC", "SDTMVAR": ["QVAL"], "CDASHDOM": ["DM"]}, {"CDASHQUE": "Which of the following five racial designations best describes you? (More than one choice is acceptable.)", "CDASHVAR": "RACE", "SDTMVAR": ["RACE"], "CDASHDOM": ["DM"]}, {"CDASHQUE": "Which of the following racial designations best describes you? (More than one choice is acceptable.)", "CDASHVAR": "CRACE", "SDTMVAR": ["QVAL"], "CDASHDOM": ["DM"]}, {"CDASHQUE": "What was the other race?", "CDASHVAR": "RACEOTH", "SDTMVAR": ["QVAL"], "CDASHDOM": ["DM"]}, {"CDASHQUE": "What is the category for the (concomitant) [medication/treatment/therapy]?", "CDASHVAR": "CMCAT", "SDTMVAR": ["CMCAT"], "CDASHDOM": ["CM"]}, {"CDASHQUE": "What is the subcategory for the (concomitant) [medication/treatment/therapy]?", "CDASHVAR": "CMSCAT", "SDTMVAR": ["CMSCAT"], "CDASHDOM": ["CM"]}, {"CDASHQUE": "Were any (concomitant) [medication(s)/treatment(s)/therap(ies)] taken?", "CDASHVAR": "CMYN", "SDTMVAR": [], "CDASHDOM": ["CM"]}, {"CDASHQUE": "What is the (concomitant) [medication/treatment/therapy] identifier?", "CDASHVAR": "CMSPID", "SDTMVAR": ["CMSPID"], "CDASHDOM": ["CM"]}, {"CDASHQUE": "What was the (concomitant) [medication/treatment/therapy] (name/term)?", "CDASHVAR": "CMTRT", "SDTMVAR": ["CMTRT"], "CDASHDOM": ["CM"]}, {"CDASHQUE": "Did the subject take [pre-specified (concomitant) medication/treatment/therapy/dose]?; Has the subject taken [pre-specified (concomitant) medication/treatment/therapy/dose]?", "CDASHVAR": "CMOCCUR", "SDTMVAR": ["CMOCCUR"], "CDASHDOM": ["CM"]}, {"CDASHQUE": "What were the active ingredients?", "CDASHVAR": "CMINGRD", "SDTMVAR": [], "CDASHDOM": ["CM"]}, {"CDASHQUE": "For what indication, was the (concomitant) [medication/treatment/therapy] taken?", "CDASHVAR": "CMINDC", "SDTMVAR": ["CMINDC"], "CDASHDOM": ["CM"]}, {"CDASHQUE": "What was the identifier for the adverse event(s) for which the (concomitant) [medication/treatment/therapy] was taken?", "CDASHVAR": "CMAENO", "SDTMVAR": [], "CDASHDOM": ["CM"]}, {"CDASHQUE": "What was the identifier for the medical history event(s) for which the (concomitant) [medication/treatment/therapy] was taken?", "CDASHVAR": "CMMHNO", "SDTMVAR": [], "CDASHDOM": ["CM"]}, {"CDASHQUE": "What was the individual dose (of the concomitant [medication/treatment/therapy] per administration)?", "CDASHVAR": "CMDOSE", "SDTMVAR": ["CMDOSE"], "CDASHDOM": ["CM"]}, {"CDASHQUE": "What was the individual dose of the (concomitant) [mediation/treatment/therapy]?", "CDASHVAR": "CMDSTXT", "SDTMVAR": ["CMDOSTXT", " CMDOSE"], "CDASHDOM": ["CM"]}, {"CDASHQUE": "What was the total daily dose of the (concomitant) [medication/treatment/therapy]?", "CDASHVAR": "CMDOSTOT", "SDTMVAR": ["CMDOSTOT"], "CDASHDOM": ["CM"]}, {"CDASHQUE": "What is the unit (for the dose of concomitant [medication/treatment/therapy])?", "CDASHVAR": "CMDOSU", "SDTMVAR": ["CMDOSU"], "CDASHDOM": ["CM"]}, {"CDASHQUE": "What was the dose form of the (concomitant) [medication/treatment/therapy]?", "CDASHVAR": "CMDOSFRM", "SDTMVAR": ["CMDOSFRM"], "CDASHDOM": ["CM"]}, {"CDASHQUE": "What was the frequency of the (concomitant) [medication/treatment/therapy]?", "CDASHVAR": "CMDOSFRQ", "SDTMVAR": ["CMDOSFRQ"], "CDASHDOM": ["CM"]}, {"CDASHQUE": "What was the route of administration of the (concomitant) [medication/treatment/therapy]?", "CDASHVAR": "CMROUTE", "SDTMVAR": ["CMROUTE"], "CDASHDOM": ["CM"]}, {"CDASHQUE": "What was the (concomitant) [medication/treatment/therapy/dose] start date?", "CDASHVAR": "CMSTDAT", "SDTMVAR": ["CMSTDTC"], "CDASHDOM": ["CM"]}, {"CDASHQUE": "What was the (concomitant) [medication/treatment/therapy/dose] start time?", "CDASHVAR": "CMSTTIM", "SDTMVAR": ["CMSTDTC"], "CDASHDOM": ["CM"]}, {"CDASHQUE": "Was the (concomitant) [medication/treatment/therapy] given/taken prior to [CMSTTPT]?; Was the (concomitant) [medication/treatment/therapy] given/taken prior to study start?", "CDASHVAR": "CMPRIOR", "SDTMVAR": ["CMSTTPT", " CMSTRF"], "CDASHDOM": ["CM"]}, {"CDASHQUE": "Was the (concomitant) [medication/treatment/therapy] ongoing?", "CDASHVAR": "CMONGO", "SDTMVAR": ["CMENRF", " CMENRTPT"], "CDASHDOM": ["CM"]}, {"CDASHQUE": "What was the (concomitant) [medication/treatment/therapy/dose] end date?", "CDASHVAR": "CMENDAT", "SDTMVAR": ["CMENDTC"], "CDASHDOM": ["CM"]}, {"CDASHQUE": "What was the [medication/treatment/therapy/dose] end time?", "CDASHVAR": "CMENTIM", "SDTMVAR": ["CMENDTC"], "CDASHDOM": ["CM"]}, {"CDASHQUE": "", "CDASHVAR": "CMDECOD", "SDTMVAR": ["CMDECOD"], "CDASHDOM": ["CM"]}, {"CDASHQUE": "", "CDASHVAR": "CMCLAS", "SDTMVAR": ["CMCLAS"], "CDASHDOM": ["CM"]}, {"CDASHQUE": "", "CDASHVAR": "CMCLASCD", "SDTMVAR": ["CMCLASCD"], "CDASHDOM": ["CM"]}, {"CDASHQUE": "", "CDASHVAR": "CMATC1", "SDTMVAR": ["QVAL"], "CDASHDOM": ["CM"]}, {"CDASHQUE": "", "CDASHVAR": "CMATC1CD", "SDTMVAR": ["QVAL"], "CDASHDOM": ["CM"]}, {"CDASHQUE": "", "CDASHVAR": "CMATC2", "SDTMVAR": ["QVAL"], "CDASHDOM": ["CM"]}, {"CDASHQUE": "", "CDASHVAR": "CMATC2CD", "SDTMVAR": ["QVAL"], "CDASHDOM": ["CM"]}, {"CDASHQUE": "", "CDASHVAR": "CMATC3", "SDTMVAR": ["QVAL"], "CDASHDOM": ["CM"]}, {"CDASHQUE": "", "CDASHVAR": "CMATC3CD", "SDTMVAR": ["QVAL"], "CDASHDOM": ["CM"]}, {"CDASHQUE": "", "CDASHVAR": "CMATC4", "SDTMVAR": ["QVAL"], "CDASHDOM": ["CM"]}, {"CDASHQUE": "", "CDASHVAR": "CMATC4CD", "SDTMVAR": ["QVAL"], "CDASHDOM": ["CM"]}, {"CDASHQUE": "", "CDASHVAR": "CMATC5", "SDTMVAR": ["QVAL"], "CDASHDOM": ["CM"]}, {"CDASHQUE": "", "CDASHVAR": "CMATC5CD", "SDTMVAR": ["QVAL"], "CDASHDOM": ["CM"]}, {"CDASHQUE": "What is the trial period?", "CDASHVAR": "EPOCH", "SDTMVAR": ["EPOCH"], "CDASHDOM": ["EC", "EX", "DS"]}, {"CDASHQUE": "What is the trial period for this disposition event?", "CDASHVAR": "EPOCH", "SDTMVAR": ["EPOCH"], "CDASHDOM": ["EC", "EX", "DS"]}, {"CDASHQUE": "Were any study treatments taken?", "CDASHVAR": "ECYN", "SDTMVAR": [], "CDASHDOM": ["EC"]}, {"CDASHQUE": "What is the category of the study treatment?", "CDASHVAR": "ECCAT", "SDTMVAR": ["ECCAT"], "CDASHDOM": ["EC"]}, {"CDASHQUE": "What is the subcategory of the study treatment?", "CDASHVAR": "ECSCAT", "SDTMVAR": ["ECSCAT"], "CDASHDOM": ["EC"]}, {"CDASHQUE": "What was the study treatment name?", "CDASHVAR": "ECTRT", "SDTMVAR": ["ECTRT"], "CDASHDOM": ["EC"]}, {"CDASHQUE": "Was [study treatment/dose] administered?; Has the subject taken [study treatment/dose]?", "CDASHVAR": "ECOCCUR", "SDTMVAR": ["ECOCCUR"], "CDASHDOM": ["EC"]}, {"CDASHQUE": "What was the reason that the study treatment was not taken?", "CDASHVAR": "ECREASOC", "SDTMVAR": ["QVAL"], "CDASHDOM": ["EC"]}, {"CDASHQUE": "Does this record describe scheduled study treatment or performed study treatment?", "CDASHVAR": "ECMOOD", "SDTMVAR": ["ECMOOD"], "CDASHDOM": ["EC"]}, {"CDASHQUE": "What is the study treatment label identifier?", "CDASHVAR": "ECREFID", "SDTMVAR": ["ECREFID"], "CDASHDOM": ["EC"]}, {"CDASHQUE": "What was the lot number of the study treatment used?", "CDASHVAR": "ECLOT", "SDTMVAR": ["ECLOT"], "CDASHDOM": ["EC"]}, {"CDASHQUE": "Was the subject fasting?", "CDASHVAR": "ECFAST", "SDTMVAR": ["ECFAST"], "CDASHDOM": ["EC"]}, {"CDASHQUE": "What was the dose form of the study treatment?", "CDASHVAR": "ECDOSFRM", "SDTMVAR": ["ECDOSFRM"], "CDASHDOM": ["EC"]}, {"CDASHQUE": "What was the [intended/actual] [study treatment/dose] [start] date?", "CDASHVAR": "ECSTDAT", "SDTMVAR": ["ECSTDTC"], "CDASHDOM": ["EC"]}, {"CDASHQUE": "What was the [intended/actual] [study treatment/dose] (start) time?", "CDASHVAR": "ECSTTIM", "SDTMVAR": ["ECSTDTC"], "CDASHDOM": ["EC"]}, {"CDASHQUE": "What was the [intended/actual] [study treatment/dose] [end] date?", "CDASHVAR": "ECENDAT", "SDTMVAR": ["ECENDTC"], "CDASHDOM": ["EC"]}, {"CDASHQUE": "What was the [intended/actual] [study treatment/dose] end time?", "CDASHVAR": "ECENTIM", "SDTMVAR": ["ECENDTC"], "CDASHDOM": ["EC"]}, {"CDASHQUE": "What was the dose per administration (of study treatment)?", "CDASHVAR": "ECDSTXT", "SDTMVAR": ["ECDOSTXT", " ECDOSE"], "CDASHDOM": ["EC"]}, {"CDASHQUE": "What were the units for the dose?", "CDASHVAR": "ECDOSU", "SDTMVAR": ["ECDOSU"], "CDASHDOM": ["EC"]}, {"CDASHQUE": "What was the frequency of study treatment dosing?", "CDASHVAR": "ECDOSFRQ", "SDTMVAR": ["ECDOSFRQ"], "CDASHDOM": ["EC"]}, {"CDASHQUE": "What was the route of administration (of the study treatment)?", "CDASHVAR": "ECROUTE", "SDTMVAR": ["ECROUTE"], "CDASHDOM": ["EC"]}, {"CDASHQUE": "What was the intended dose regimen?", "CDASHVAR": "ECDOSRGM", "SDTMVAR": ["ECDOSRGM"], "CDASHDOM": ["EC"]}, {"CDASHQUE": "Was the dose adjusted?", "CDASHVAR": "ECDOSADJ", "SDTMVAR": [], "CDASHDOM": ["EC"]}, {"CDASHQUE": "What was the reason the dose was adjusted?", "CDASHVAR": "ECADJ", "SDTMVAR": ["ECADJ"], "CDASHDOM": ["EC"]}, {"CDASHQUE": "If the dose was interrupted, how long was the interruption?", "CDASHVAR": "ECITRPD", "SDTMVAR": ["QVAL"], "CDASHDOM": ["EC"]}, {"CDASHQUE": "If the dose was interrupted, what was the unit for the interruption duration?", "CDASHVAR": "ECITRPDU", "SDTMVAR": ["QVAL"], "CDASHDOM": ["EC"]}, {"CDASHQUE": "What was the anatomical location of the (study treatment) administration?", "CDASHVAR": "ECLOC", "SDTMVAR": ["ECLOC"], "CDASHDOM": ["EC"]}, {"CDASHQUE": "What was the total amount (Drug + Vehicle)(of study treatment) administered?", "CDASHVAR": "ECVAMT", "SDTMVAR": ["ECVAMT"], "CDASHDOM": ["EC"]}, {"CDASHQUE": "What was the unit for the amount (of study treatment) administered?", "CDASHVAR": "ECVAMTU", "SDTMVAR": ["ECVAMTU"], "CDASHDOM": ["EC"]}, {"CDASHQUE": "What was the study treatment infusion rate?", "CDASHVAR": "ECFLRT", "SDTMVAR": ["QVAL"], "CDASHDOM": ["EC"]}, {"CDASHQUE": "What was the unit for the (study treatment) infusion rate?", "CDASHVAR": "ECFLRTU", "SDTMVAR": ["QVAL"], "CDASHDOM": ["EC"]}, {"CDASHQUE": "What was the planned time point for study treatment?", "CDASHVAR": "ECTPT", "SDTMVAR": ["ECTPT"], "CDASHDOM": ["EC"]}, {"CDASHQUE": "Did the subject complete the full course of study treatment?", "CDASHVAR": "ECTRTCMP", "SDTMVAR": ["QVAL"], "CDASHDOM": ["EC"]}, {"CDASHQUE": "What was the side of the anatomical location of the (study treatment) administration?", "CDASHVAR": "ECLAT", "SDTMVAR": ["ECLAT"], "CDASHDOM": ["EC"]}, {"CDASHQUE": "What was the directionality of the anatomical location of the (study treatment) administration?", "CDASHVAR": "ECDIR", "SDTMVAR": ["ECDIR"], "CDASHDOM": ["EC"]}, {"CDASHQUE": "Were any study treatments taken?", "CDASHVAR": "EXYN", "SDTMVAR": [], "CDASHDOM": ["EX"]}, {"CDASHQUE": "What is the category of the study treatment?", "CDASHVAR": "EXCAT", "SDTMVAR": ["EXCAT"], "CDASHDOM": ["EX"]}, {"CDASHQUE": "What is the subcategory of the study treatment?", "CDASHVAR": "EXSCAT", "SDTMVAR": ["EXSCAT"], "CDASHDOM": ["EX"]}, {"CDASHQUE": "What was the study treatment?", "CDASHVAR": "EXTRT", "SDTMVAR": ["EXTRT"], "CDASHDOM": ["EX"]}, {"CDASHQUE": "What is the study treatment label identifier?", "CDASHVAR": "EXREFID", "SDTMVAR": ["EXREFID"], "CDASHDOM": ["EX"]}, {"CDASHQUE": "What was the lot number of the study treatment used?", "CDASHVAR": "EXLOT", "SDTMVAR": ["EXLOT"], "CDASHDOM": ["EX"]}, {"CDASHQUE": "Was the subject fasting?", "CDASHVAR": "EXFAST", "SDTMVAR": ["EXFAST"], "CDASHDOM": ["EX"]}, {"CDASHQUE": "What was the dose form of the study treatment?", "CDASHVAR": "EXDOSFRM", "SDTMVAR": ["EXDOSFRM"], "CDASHDOM": ["EX"]}, {"CDASHQUE": "What was the [intended/actual] [study treatment/dose] [start] date?", "CDASHVAR": "EXSTDAT", "SDTMVAR": ["EXSTDTC"], "CDASHDOM": ["EX"]}, {"CDASHQUE": "What was the [intended/actual] [study treatment/dose] (start) time?", "CDASHVAR": "EXSTTIM", "SDTMVAR": ["EXSTDTC"], "CDASHDOM": ["EX"]}, {"CDASHQUE": "What was the [intended/actual] [treatment/dose] [end] date?", "CDASHVAR": "EXENDAT", "SDTMVAR": ["EXENDTC"], "CDASHDOM": ["EX"]}, {"CDASHQUE": "What was the [intended/actual] [study treatment/dose] end time?", "CDASHVAR": "EXENTIM", "SDTMVAR": ["EXENDTC"], "CDASHDOM": ["EX"]}, {"CDASHQUE": "What was the dose per administration (of study treatment)?", "CDASHVAR": "EXDSTXT", "SDTMVAR": ["EXDOSTXT", "EXDOSE"], "CDASHDOM": ["EX"]}, {"CDASHQUE": "What was the unit for the dose?", "CDASHVAR": "EXDOSU", "SDTMVAR": ["EXDOSU"], "CDASHDOM": ["EX"]}, {"CDASHQUE": "What was the frequency of study treatment dosing?", "CDASHVAR": "EXDOSFRQ", "SDTMVAR": ["EXDOSFRQ"], "CDASHDOM": ["EX"]}, {"CDASHQUE": "What was the route of administration (of the study treatment)?", "CDASHVAR": "EXROUTE", "SDTMVAR": ["EXROUTE"], "CDASHDOM": ["EX"]}, {"CDASHQUE": "What was the intended dose regimen (of the study treatment)?", "CDASHVAR": "EXDOSRGM", "SDTMVAR": ["EXDOSRGM"], "CDASHDOM": ["EX"]}, {"CDASHQUE": "Was the dose adjusted?", "CDASHVAR": "EXDOSADJ", "SDTMVAR": [], "CDASHDOM": ["EX"]}, {"CDASHQUE": "What was the reason the dose was adjusted (from planned)?", "CDASHVAR": "EXADJ", "SDTMVAR": ["EXADJ"], "CDASHDOM": ["EX"]}, {"CDASHQUE": "If the dose was interrupted, how long was the interruption?", "CDASHVAR": "EXITRPD", "SDTMVAR": ["QVAL"], "CDASHDOM": ["EX"]}, {"CDASHQUE": "If the dose was interrupted, what were the units for the interruption duration?", "CDASHVAR": "EXITRPDU", "SDTMVAR": ["QVAL"], "CDASHDOM": ["EX"]}, {"CDASHQUE": "What was the anatomical location of the (study treatment) administration?", "CDASHVAR": "EXLOC", "SDTMVAR": ["EXLOC"], "CDASHDOM": ["EX"]}, {"CDASHQUE": "What was the total amount (Drug + Vehicle)(of study treatment) administered?", "CDASHVAR": "EXVAMT", "SDTMVAR": ["EXVAMT"], "CDASHDOM": ["EX"]}, {"CDASHQUE": "What was the unit for the amount (of study treatment) administered?", "CDASHVAR": "EXVAMTU", "SDTMVAR": ["EXVAMTU"], "CDASHDOM": ["EX"]}, {"CDASHQUE": "What was the study treatment infusion rate?", "CDASHVAR": "EXFLRT", "SDTMVAR": ["QVAL"], "CDASHDOM": ["EX"]}, {"CDASHQUE": "What were the units for the study treatment infusion rate?", "CDASHVAR": "EXFLRTU", "SDTMVAR": ["QVAL"], "CDASHDOM": ["EX"]}, {"CDASHQUE": "What was the planned time point for study treatment?", "CDASHVAR": "EXTPT", "SDTMVAR": ["EXTPT"], "CDASHDOM": ["EX"]}, {"CDASHQUE": "Did the subject complete the full course of study treatment?", "CDASHVAR": "EXTRTCMP", "SDTMVAR": ["QVAL"], "CDASHDOM": ["EX"]}, {"CDASHQUE": "What was the side of the anatomical location of the (study treatment) administration?", "CDASHVAR": "EXLAT", "SDTMVAR": ["EXLAT"], "CDASHDOM": ["EX"]}, {"CDASHQUE": "What was the directionality of the anatomical location of the (study treatment) administration?", "CDASHVAR": "EXDIR", "SDTMVAR": ["EXDIR"], "CDASHDOM": ["EX"]}, {"CDASHQUE": "Were any surgical, therapeutic or diagnostic procedures performed?", "CDASHVAR": "PRYN", "SDTMVAR": [], "CDASHDOM": ["PR"]}, {"CDASHQUE": "What was the category of the procedure?", "CDASHVAR": "PRCAT", "SDTMVAR": ["PRCAT"], "CDASHDOM": ["PR"]}, {"CDASHQUE": "What was the subcategory of the procedure?", "CDASHVAR": "PRSCAT", "SDTMVAR": ["PRSCAT"], "CDASHDOM": ["PR"]}, {"CDASHQUE": "What is the procedure identifier?", "CDASHVAR": "PRSPID", "SDTMVAR": ["PRSPID"], "CDASHDOM": ["PR"]}, {"CDASHQUE": "What was the procedure name?", "CDASHVAR": "PRTRT", "SDTMVAR": ["PRTRT"], "CDASHDOM": ["PR"]}, {"CDASHQUE": "", "CDASHVAR": "PRDECOD", "SDTMVAR": ["PRDECOD"], "CDASHDOM": ["PR"]}, {"CDASHQUE": "", "CDASHVAR": "PRMODIFY", "SDTMVAR": ["PRMODIFY"], "CDASHDOM": ["PR"]}, {"CDASHQUE": "", "CDASHVAR": "PRPRESP", "SDTMVAR": ["PRPRESP"], "CDASHDOM": ["PR"]}, {"CDASHQUE": "Was [PRTRT] performed?; Has the subject had [PRTRT]?", "CDASHVAR": "PROCCUR", "SDTMVAR": ["PROCCUR"], "CDASHDOM": ["PR"]}, {"CDASHQUE": "What was the reason that the procedure was not performed?", "CDASHVAR": "PRREASOC", "SDTMVAR": ["QVAL"], "CDASHDOM": ["PR"]}, {"CDASHQUE": "Was the procedure data collected?", "CDASHVAR": "PRCSTAT", "SDTMVAR": ["PRSTAT"], "CDASHDOM": ["PR"]}, {"CDASHQUE": "What was the reason not done?", "CDASHVAR": "PRREASND", "SDTMVAR": ["PRREASND"], "CDASHDOM": ["PR"]}, {"CDASHQUE": "Was the procedure performed prior to [PRSTTPT]?; Was the procedure performed prior to study start?", "CDASHVAR": "PRPRIOR", "SDTMVAR": ["PRSTRTPT", " PRSTRF"], "CDASHDOM": ["PR"]}, {"CDASHQUE": "What was the procedure [start] date ?", "CDASHVAR": "PRSTDAT", "SDTMVAR": ["PRSTDTC"], "CDASHDOM": ["PR"]}, {"CDASHQUE": "Was the procedure ongoing?", "CDASHVAR": "PRONGO", "SDTMVAR": ["PRENRTPT", " PRENRF"], "CDASHDOM": ["PR"]}, {"CDASHQUE": "What was the procedure end date?", "CDASHVAR": "PRENDAT", "SDTMVAR": ["PRENDTC"], "CDASHDOM": ["PR"]}, {"CDASHQUE": "For what indication, was the [PRTRT] performed?", "CDASHVAR": "PRINDC", "SDTMVAR": ["PRINDC"], "CDASHDOM": ["PR"]}, {"CDASHQUE": "What was the identifier for the adverse event(s) for which the procedure was performed?", "CDASHVAR": "PRAENO", "SDTMVAR": [], "CDASHDOM": ["PR"]}, {"CDASHQUE": "What was the identifier for the medical history event(s) for which the procedure was performed?", "CDASHVAR": "PRMHNO", "SDTMVAR": [], "CDASHDOM": ["PR"]}, {"CDASHQUE": "What was the [dose/amount] of [PRTRT] (per administration/for the procedure)?", "CDASHVAR": "PRDSTXT", "SDTMVAR": ["PRDOSE", " PRDOSTXT"], "CDASHDOM": ["PR"]}, {"CDASHQUE": "What was the unit?", "CDASHVAR": "PRDOSU", "SDTMVAR": ["PRDOSU"], "CDASHDOM": ["PR"]}, {"CDASHQUE": "What was the frequency of [PRTRT]?", "CDASHVAR": "PRDOSFRQ", "SDTMVAR": ["PRDOSFRQ"], "CDASHDOM": ["PR"]}, {"CDASHQUE": "What was the route of administration of the procedure?", "CDASHVAR": "PRROUTE", "SDTMVAR": ["PRROUTE"], "CDASHDOM": ["PR"]}, {"CDASHQUE": "What was the anatomical location where the procedure was performed?", "CDASHVAR": "PRLOC", "SDTMVAR": ["PRLOC"], "CDASHDOM": ["PR"]}, {"CDASHQUE": "What was the side of the anatomical location of the administration?", "CDASHVAR": "PRLAT", "SDTMVAR": ["PRLAT"], "CDASHDOM": ["PR"]}, {"CDASHQUE": "What was the directionality of the anatomical location of the procedure?", "CDASHVAR": "PRDIR", "SDTMVAR": ["PRDIR"], "CDASHDOM": ["PR"]}, {"CDASHQUE": "What was the portion or totality of the anatomical location that was treated?", "CDASHVAR": "PRPORTOT", "SDTMVAR": ["PRPORTOT"], "CDASHDOM": ["PR"]}, {"CDASHQUE": "Was the subject fasting?", "CDASHVAR": "PRFAST", "SDTMVAR": ["PRFAST"], "CDASHDOM": ["PR"]}, {"CDASHQUE": "What was the intended procedure regimen?", "CDASHVAR": "PRDOSRGM", "SDTMVAR": ["PRDOSRGM"], "CDASHDOM": ["PR"]}, {"CDASHQUE": "Was the procedure dose adjusted?", "CDASHVAR": "PRDOSADJ", "SDTMVAR": [], "CDASHDOM": ["PR"]}, {"CDASHQUE": "What was the reason the procedure dose was adjusted?", "CDASHVAR": "PRADJ", "SDTMVAR": ["PRADJ"], "CDASHDOM": ["PR"]}, {"CDASHQUE": "Did the subject complete the full course of the [PRTRT]?", "CDASHVAR": "PRTRTCMP", "SDTMVAR": ["QVAL"], "CDASHDOM": ["PR"]}, {"CDASHQUE": "Was the procedure interrupted?", "CDASHVAR": "PRITRPYN", "SDTMVAR": [], "CDASHDOM": ["PR"]}, {"CDASHQUE": "Why was the procedure interrupted?", "CDASHVAR": "PRITRPRS", "SDTMVAR": ["QVAL"], "CDASHDOM": ["PR"]}, {"CDASHQUE": "What was the duration of the procedure interruption?", "CDASHVAR": "PRITRPD", "SDTMVAR": ["QVAL"], "CDASHDOM": ["PR"]}, {"CDASHQUE": "What was the interruption duration unit?", "CDASHVAR": "PRITRPDU", "SDTMVAR": [], "CDASHDOM": ["PR"]}, {"CDASHQUE": "", "CDASHVAR": "PRLLT", "SDTMVAR": ["QVAL"], "CDASHDOM": ["PR"]}, {"CDASHQUE": "", "CDASHVAR": "PRLLTCD", "SDTMVAR": ["QVAL"], "CDASHDOM": ["PR"]}, {"CDASHQUE": "", "CDASHVAR": "PRPTCD", "SDTMVAR": ["QVAL"], "CDASHDOM": ["PR"]}, {"CDASHQUE": "", "CDASHVAR": "PRHLT", "SDTMVAR": ["QVAL"], "CDASHDOM": ["PR"]}, {"CDASHQUE": "", "CDASHVAR": "PRHLTCD", "SDTMVAR": ["QVAL"], "CDASHDOM": ["PR"]}, {"CDASHQUE": "", "CDASHVAR": "PRHLGT", "SDTMVAR": ["QVAL"], "CDASHDOM": ["PR"]}, {"CDASHQUE": "", "CDASHVAR": "PRHLGTCD", "SDTMVAR": ["QVAL"], "CDASHDOM": ["PR"]}, {"CDASHQUE": "", "CDASHVAR": "PRSOC", "SDTMVAR": ["QVAL"], "CDASHDOM": ["PR"]}, {"CDASHQUE": "", "CDASHVAR": "PRSOCCD", "SDTMVAR": ["QVAL"], "CDASHDOM": ["PR"]}, {"CDASHQUE": "What [is/was] the [name/type] of (the) substance used?", "CDASHVAR": "SUTRT", "SDTMVAR": ["SUTRT"], "CDASHDOM": ["SU"]}, {"CDASHQUE": "What is/was the category of the substance (used)?", "CDASHVAR": "SUCAT", "SDTMVAR": ["SUCAT"], "CDASHDOM": ["SU"]}, {"CDASHQUE": "What was the subcategory of the substance (used)?", "CDASHVAR": "SUSCAT", "SDTMVAR": ["SUSCAT"], "CDASHDOM": ["SU"]}, {"CDASHQUE": "Were any [sponsor-phrase/substance name/recreational drugs] used?", "CDASHVAR": "SUYN", "SDTMVAR": [], "CDASHDOM": ["SU"]}, {"CDASHQUE": "Does/Has the subject ever used/consumed [SUTRT/SUCAT]?", "CDASHVAR": "SUNCF", "SDTMVAR": ["SUOCCUR", " SUSTRTPT", " SUSTRF", " SUENRTPT", " SUENRF"], "CDASHDOM": ["SU"]}, {"CDASHQUE": "What is/was the substance use identifier?", "CDASHVAR": "SUSPID", "SDTMVAR": ["SUSPID"], "CDASHDOM": ["SU"]}, {"CDASHQUE": "Was the [SUTRT/SUCAT] use data collected?", "CDASHVAR": "SUCSTAT", "SDTMVAR": ["SUSTAT"], "CDASHDOM": ["SU"]}, {"CDASHQUE": "What was the reason the data was not collected?", "CDASHVAR": "SUREASND", "SDTMVAR": ["SUREASND"], "CDASHDOM": ["SU"]}, {"CDASHQUE": "What is/was the amount of [SUTRT] used/consumed?", "CDASHVAR": "SUDSTXT", "SDTMVAR": ["SUDOSE", " SUDOSU", " SUDOSTXT"], "CDASHDOM": ["SU"]}, {"CDASHQUE": "What [is/was] the frequency of [SUTRT] [use/consumption]?", "CDASHVAR": "SUDOSFRQ", "SDTMVAR": ["SUDOSFRQ"], "CDASHDOM": ["SU"]}, {"CDASHQUE": "What was the start date of [SUTRT/SUCAT] use/consumption?", "CDASHVAR": "SUSTDAT", "SDTMVAR": ["SUSTDTC"], "CDASHDOM": ["SU"]}, {"CDASHQUE": "What was the end date of [SUTRT/SUCAT] use/consumption?", "CDASHVAR": "SUENDAT", "SDTMVAR": ["SUENDTC"], "CDASHDOM": ["SU"]}, {"CDASHQUE": "What was the duration of [SUTRT/SUCAT] use/consumption?", "CDASHVAR": "SUCDUR", "SDTMVAR": ["SUDUR"], "CDASHDOM": ["SU"]}, {"CDASHQUE": "What was the unit of duration of [SUTRT/SUCAT] use/consumption?", "CDASHVAR": "SUCDURU", "SDTMVAR": ["SUDUR"], "CDASHDOM": ["SU"]}, {"CDASHQUE": "", "CDASHVAR": "SUMODIFY", "SDTMVAR": ["SUMODIFY"], "CDASHDOM": ["SU"]}, {"CDASHQUE": "", "CDASHVAR": "SUDECOD", "SDTMVAR": ["SUDECOD"], "CDASHDOM": ["SU"]}, {"CDASHQUE": "Were any adverse events experienced?", "CDASHVAR": "AEYN", "SDTMVAR": [], "CDASHDOM": ["AE"]}, {"CDASHQUE": "What is the category of the adverse event?", "CDASHVAR": "AECAT", "SDTMVAR": ["AECAT"], "CDASHDOM": ["AE"]}, {"CDASHQUE": "What is the subcategory of the adverse event?", "CDASHVAR": "AESCAT", "SDTMVAR": ["AESCAT"], "CDASHDOM": ["AE"]}, {"CDASHQUE": "What is the adverse event identifier?", "CDASHVAR": "AESPID", "SDTMVAR": ["AESPID"], "CDASHDOM": ["AE"]}, {"CDASHQUE": "What is the adverse event term?", "CDASHVAR": "AETERM", "SDTMVAR": ["AETERM"], "CDASHDOM": ["AE"]}, {"CDASHQUE": "Did the subject have [pre-specified adverse event/group of adverse events]?", "CDASHVAR": "AEOCCUR", "SDTMVAR": ["FAORRES"], "CDASHDOM": ["AE"]}, {"CDASHQUE": "", "CDASHVAR": "AEPRESP", "SDTMVAR": ["AEPRESP"], "CDASHDOM": ["AE"]}, {"CDASHQUE": "What is the adverse event start date?", "CDASHVAR": "AESTDAT", "SDTMVAR": ["AESTDTC"], "CDASHDOM": ["AE"]}, {"CDASHQUE": "What is the adverse event start time?", "CDASHVAR": "AESTTIM", "SDTMVAR": ["AESTDTC"], "CDASHDOM": ["AE"]}, {"CDASHQUE": "What is the anatomical location of the adverse event?", "CDASHVAR": "AELOC", "SDTMVAR": ["AELOC"], "CDASHDOM": ["AE"]}, {"CDASHQUE": "What is the side of the anatomical location of the adverse event?", "CDASHVAR": "AELAT", "SDTMVAR": ["AELAT"], "CDASHDOM": ["AE"]}, {"CDASHQUE": "What is the directionality of the anatomical location of the adverse event?", "CDASHVAR": "AEDIR", "SDTMVAR": ["AEDIR"], "CDASHDOM": ["AE"]}, {"CDASHQUE": "What is the portion or totality of the anatomical location of the adverse event?", "CDASHVAR": "AEPORTOT", "SDTMVAR": ["AEPORTOT"], "CDASHDOM": ["AE"]}, {"CDASHQUE": "Is the adverse event ongoing?", "CDASHVAR": "AEONGO", "SDTMVAR": ["AEENRTPT", " AEENRF"], "CDASHDOM": ["AE"]}, {"CDASHQUE": "What was the adverse event end date?", "CDASHVAR": "AEENDAT", "SDTMVAR": ["AEENDTC"], "CDASHDOM": ["AE"]}, {"CDASHQUE": "What was the adverse event end time?", "CDASHVAR": "AEENTIM", "SDTMVAR": ["AEENDTC"], "CDASHDOM": ["AE"]}, {"CDASHQUE": "What is the severity of the adverse event?", "CDASHVAR": "AESEV", "SDTMVAR": ["AESEV"], "CDASHDOM": ["AE"]}, {"CDASHQUE": "What is the [NCI CTCAE/Name of scale (toxicity) grade] of the adverse event?", "CDASHVAR": "AETOXGR", "SDTMVAR": ["AETOXGR"], "CDASHDOM": ["AE"]}, {"CDASHQUE": "Was the adverse event serious?", "CDASHVAR": "AESER", "SDTMVAR": ["AESER"], "CDASHDOM": ["AE"]}, {"CDASHQUE": "Did the adverse event result in death?", "CDASHVAR": "AESDTH", "SDTMVAR": ["AESDTH"], "CDASHDOM": ["AE"]}, {"CDASHQUE": "What [is/was] the subject's date of death?", "CDASHVAR": "DTHDAT", "SDTMVAR": ["DTHDTC"], "CDASHDOM": ["AE", "DS", "DD"]}, {"CDASHQUE": "What was the subject's date of death?", "CDASHVAR": "DTHDAT", "SDTMVAR": ["DTHDTC"], "CDASHDOM": ["AE", "DS", "DD"]}, {"CDASHQUE": "Was the adverse event life threatening?", "CDASHVAR": "AESLIFE", "SDTMVAR": ["AESLIFE"], "CDASHDOM": ["AE"]}, {"CDASHQUE": "Did the adverse event result in initial or prolonged hospitalization for the subject?", "CDASHVAR": "AESHOSP", "SDTMVAR": ["AESHOSP"], "CDASHDOM": ["AE"]}, {"CDASHQUE": "Did the adverse event result in disability or permanent damage?", "CDASHVAR": "AESDISAB", "SDTMVAR": ["AESDISAB"], "CDASHDOM": ["AE"]}, {"CDASHQUE": "Was the adverse event associated with a congenital anomaly or birth defect?", "CDASHVAR": "AESCONG", "SDTMVAR": ["AESCONG"], "CDASHDOM": ["AE"]}, {"CDASHQUE": "Did the adverse event require intervention to prevent permanent impairment or damage due to the use of a medical product?", "CDASHVAR": "AESINTV", "SDTMVAR": ["QVAL"], "CDASHDOM": ["AE"]}, {"CDASHQUE": "Was the adverse event a medically important event not covered by other serious criteria?", "CDASHVAR": "AESMIE", "SDTMVAR": ["AESMIE"], "CDASHDOM": ["AE"]}, {"CDASHQUE": "Was the adverse event associated with the development of cancer?", "CDASHVAR": "AESCAN", "SDTMVAR": ["AESCAN"], "CDASHDOM": ["AE"]}, {"CDASHQUE": "Did the adverse event occur with an overdose?", "CDASHVAR": "AESOD", "SDTMVAR": ["AESOD"], "CDASHDOM": ["AE"]}, {"CDASHQUE": "Was this adverse event related to study treatment?", "CDASHVAR": "AEREL", "SDTMVAR": ["AEREL"], "CDASHDOM": ["AE"]}, {"CDASHQUE": "What action was taken with study treatment?", "CDASHVAR": "AEACN", "SDTMVAR": ["AEACN"], "CDASHDOM": ["AE"]}, {"CDASHQUE": "What action was taken with a device used in the study?", "CDASHVAR": "AEACNDEV", "SDTMVAR": ["AEACNDEV"], "CDASHDOM": ["AE"]}, {"CDASHQUE": "What other action was taken?", "CDASHVAR": "AEACNOTH", "SDTMVAR": ["AEACNOTH"], "CDASHDOM": ["AE"]}, {"CDASHQUE": "What is the outcome of this adverse event?", "CDASHVAR": "AEOUT", "SDTMVAR": ["AEOUT"], "CDASHDOM": ["AE"]}, {"CDASHQUE": "Did the adverse event cause the subject to be discontinued from the study?", "CDASHVAR": "AEDIS", "SDTMVAR": ["QVAL"], "CDASHDOM": ["AE"]}, {"CDASHQUE": "Was this adverse event due to treatment other than study treatment?", "CDASHVAR": "AERLNSYN", "SDTMVAR": [], "CDASHDOM": ["AE"]}, {"CDASHQUE": "What is the relationship to non-study treatment?", "CDASHVAR": "AERELNST", "SDTMVAR": ["AERELNST"], "CDASHDOM": ["AE"]}, {"CDASHQUE": "Is this event of special interest?", "CDASHVAR": "AESI", "SDTMVAR": [], "CDASHDOM": ["AE"]}, {"CDASHQUE": "What is the adverse event pattern?", "CDASHVAR": "AEPATT", "SDTMVAR": ["AEPATT"], "CDASHDOM": ["AE"]}, {"CDASHQUE": "Was a concomitant or additional treatment given due to this adverse event?", "CDASHVAR": "AECONTRT", "SDTMVAR": ["AECONTRT"], "CDASHDOM": ["AE"]}, {"CDASHQUE": "", "CDASHVAR": "AEMODIFY", "SDTMVAR": ["AEMODIFY"], "CDASHDOM": ["AE"]}, {"CDASHQUE": "", "CDASHVAR": "AEDECOD", "SDTMVAR": ["AEDECOD"], "CDASHDOM": ["AE"]}, {"CDASHQUE": "", "CDASHVAR": "AELLT", "SDTMVAR": ["AELLT"], "CDASHDOM": ["AE"]}, {"CDASHQUE": "", "CDASHVAR": "AELLTCD", "SDTMVAR": ["AELLTCD"], "CDASHDOM": ["AE"]}, {"CDASHQUE": "", "CDASHVAR": "AEPTCD", "SDTMVAR": ["AEPTCD"], "CDASHDOM": ["AE"]}, {"CDASHQUE": "", "CDASHVAR": "AEHLT", "SDTMVAR": ["AEHLT"], "CDASHDOM": ["AE"]}, {"CDASHQUE": "", "CDASHVAR": "AEHLTCD", "SDTMVAR": ["AEHLTCD"], "CDASHDOM": ["AE"]}, {"CDASHQUE": "", "CDASHVAR": "AEHLGT", "SDTMVAR": ["AEHLGT"], "CDASHDOM": ["AE"]}, {"CDASHQUE": "", "CDASHVAR": "AEHLGTCD", "SDTMVAR": ["AEHLGTCD"], "CDASHDOM": ["AE"]}, {"CDASHQUE": "", "CDASHVAR": "AESOC", "SDTMVAR": ["AESOC"], "CDASHDOM": ["AE"]}, {"CDASHQUE": "", "CDASHVAR": "AESOCCD", "SDTMVAR": ["AESOCCD"], "CDASHDOM": ["AE"]}, {"CDASHQUE": "Were any other actions taken in response to this adverse event?", "CDASHVAR": "AEACNOYN", "SDTMVAR": [], "CDASHDOM": ["AE"]}, {"CDASHQUE": "What is the category of the clinical event?", "CDASHVAR": "CECAT", "SDTMVAR": ["CECAT"], "CDASHDOM": ["CE"]}, {"CDASHQUE": "What is the subcategory of the clinical event?", "CDASHVAR": "CESCAT", "SDTMVAR": ["CESCAT"], "CDASHDOM": ["CE"]}, {"CDASHQUE": "Were any clinical events experienced?", "CDASHVAR": "CEYN", "SDTMVAR": [], "CDASHDOM": ["CE"]}, {"CDASHQUE": "What is the clinical event identifier?", "CDASHVAR": "CESPID", "SDTMVAR": ["CESPID"], "CDASHDOM": ["CE"]}, {"CDASHQUE": "What is the clinical event term?", "CDASHVAR": "CETERM", "SDTMVAR": ["CETERM"], "CDASHDOM": ["CE"]}, {"CDASHQUE": "Did the subject have [pre-specified clinical event/group of clinical events ]?", "CDASHVAR": "CEOCCUR", "SDTMVAR": ["CEOCCUR"], "CDASHDOM": ["CE"]}, {"CDASHQUE": "", "CDASHVAR": "CEPRESP", "SDTMVAR": ["CEPRESP"], "CDASHDOM": ["CE"]}, {"CDASHQUE": "What was the [clinical event] start date?", "CDASHVAR": "CESTDAT", "SDTMVAR": ["CESTDTC"], "CDASHDOM": ["CE"]}, {"CDASHQUE": "What was the [clinical event] start time?", "CDASHVAR": "CESTTIM", "SDTMVAR": ["CESTDTC"], "CDASHDOM": ["CE"]}, {"CDASHQUE": "What was the anatomical location of the [clinical event]?", "CDASHVAR": "CELOC", "SDTMVAR": ["CELOC"], "CDASHDOM": ["CE"]}, {"CDASHQUE": "What was the side of the anatomical location of the [clinical event]?", "CDASHVAR": "CELAT", "SDTMVAR": ["CELAT"], "CDASHDOM": ["CE"]}, {"CDASHQUE": "What was the directionality of the anatomical location of the [clinical event]?", "CDASHVAR": "CEDIR", "SDTMVAR": ["CEDIR"], "CDASHDOM": ["CE"]}, {"CDASHQUE": "What was the portion or totality of the anatomical location of the clinical event?", "CDASHVAR": "CEPORTOT", "SDTMVAR": ["CEPORTOT"], "CDASHDOM": ["CE"]}, {"CDASHQUE": "Was the [clinical event] ongoing?", "CDASHVAR": "CEONGO", "SDTMVAR": ["CEENRTPT", " CEENRF"], "CDASHDOM": ["CE"]}, {"CDASHQUE": "What was the [clinical event] end date?", "CDASHVAR": "CEENDAT", "SDTMVAR": ["CEENDTC"], "CDASHDOM": ["CE"]}, {"CDASHQUE": "What was the [clinical event] end time?", "CDASHVAR": "CEENTIM", "SDTMVAR": ["CEENDTC"], "CDASHDOM": ["CE"]}, {"CDASHQUE": "What was the severity of the [clinical event]?", "CDASHVAR": "CESEV", "SDTMVAR": ["CESEV"], "CDASHDOM": ["CE"]}, {"CDASHQUE": "What was the description of the toxicity?", "CDASHVAR": "CETOX", "SDTMVAR": ["CETOX"], "CDASHDOM": ["CE"]}, {"CDASHQUE": "What was the toxicity grade?", "CDASHVAR": "CETOXGR", "SDTMVAR": ["CETOXGR"], "CDASHDOM": ["CE"]}, {"CDASHQUE": "", "CDASHVAR": "CEMODIFY", "SDTMVAR": ["CEMODIFY"], "CDASHDOM": ["CE"]}, {"CDASHQUE": "", "CDASHVAR": "CEDECOD", "SDTMVAR": ["CEDECOD"], "CDASHDOM": ["CE"]}, {"CDASHQUE": "", "CDASHVAR": "CELLT", "SDTMVAR": ["CELLT"], "CDASHDOM": ["CE"]}, {"CDASHQUE": "", "CDASHVAR": "CELLTCD", "SDTMVAR": ["CELLTCD"], "CDASHDOM": ["CE"]}, {"CDASHQUE": "", "CDASHVAR": "CEPTCD", "SDTMVAR": ["CEPTCD"], "CDASHDOM": ["CE"]}, {"CDASHQUE": "", "CDASHVAR": "CEHLT", "SDTMVAR": ["CEHLT"], "CDASHDOM": ["CE"]}, {"CDASHQUE": "", "CDASHVAR": "CEHLTCD", "SDTMVAR": ["CEHLTCD"], "CDASHDOM": ["CE"]}, {"CDASHQUE": "", "CDASHVAR": "CEHLGT", "SDTMVAR": ["CEHLGT"], "CDASHDOM": ["CE"]}, {"CDASHQUE": "", "CDASHVAR": "CEHLGTCD", "SDTMVAR": ["CEHLGTCD"], "CDASHDOM": ["CE"]}, {"CDASHQUE": "", "CDASHVAR": "CESOC", "SDTMVAR": ["CESOC"], "CDASHDOM": ["CE"]}, {"CDASHQUE": "", "CDASHVAR": "CESOCCD", "SDTMVAR": ["CESOCCD"], "CDASHDOM": ["CE"]}, {"CDASHQUE": "What was the category of the disposition?", "CDASHVAR": "DSCAT", "SDTMVAR": ["DSCAT"], "CDASHDOM": ["DS"]}, {"CDASHQUE": "What was the subcategory of the disposition?", "CDASHVAR": "DSSCAT", "SDTMVAR": ["DSSCAT"], "CDASHDOM": ["DS"]}, {"CDASHQUE": "What was the subject's status?", "CDASHVAR": "DSDECOD", "SDTMVAR": ["DSDECOD"], "CDASHDOM": ["DS"]}, {"CDASHQUE": "What was the subject's status?; If [DSDECOD], specify", "CDASHVAR": "DSTERM", "SDTMVAR": ["DSTERM"], "CDASHDOM": ["DS"]}, {"CDASHQUE": "What was the [protocol milestone/disposition event/other event name] date?", "CDASHVAR": "DSSTDAT", "SDTMVAR": ["DSSTDTC"], "CDASHDOM": ["DS"]}, {"CDASHQUE": "What was the [protocol milestone/disposition event/other event name] time?", "CDASHVAR": "DSSTTIM", "SDTMVAR": ["DSSTDTC"], "CDASHDOM": ["DS"]}, {"CDASHQUE": "Was (study) treatment unblinded by the site?", "CDASHVAR": "DSUNBLND", "SDTMVAR": ["DSTERM", " DSDECOD"], "CDASHDOM": ["DS"]}, {"CDASHQUE": "Will the subject continue?", "CDASHVAR": "DSCONT", "SDTMVAR": ["QVAL"], "CDASHDOM": ["DS"]}, {"CDASHQUE": "What is the next [epoch/period/study/trial] the subject will [continue to/enter/enroll ]?", "CDASHVAR": "DSNEXT", "SDTMVAR": [], "CDASHDOM": ["DS"]}, {"CDASHQUE": "What is the category of the protocol deviation?", "CDASHVAR": "DVCAT", "SDTMVAR": ["DVCAT"], "CDASHDOM": ["DV"]}, {"CDASHQUE": "What is the subcategory of the protocol deviation?", "CDASHVAR": "DVSCAT", "SDTMVAR": ["DVSCAT"], "CDASHDOM": ["DV"]}, {"CDASHQUE": "Were there any protocol deviations?", "CDASHVAR": "DVYN", "SDTMVAR": [], "CDASHDOM": ["DV"]}, {"CDASHQUE": "What was the (standardized) protocol deviation (term/(code)?", "CDASHVAR": "DVDECOD", "SDTMVAR": ["DVDECOD"], "CDASHDOM": ["DV"]}, {"CDASHQUE": "What was the protocol deviation term?", "CDASHVAR": "DVTERM", "SDTMVAR": ["DVTERM"], "CDASHDOM": ["DV"]}, {"CDASHQUE": "What was the protocol deviation start date?", "CDASHVAR": "DVSTDAT", "SDTMVAR": ["DVSTDTC"], "CDASHDOM": ["DV"]}, {"CDASHQUE": "What was the protocol deviation start time?", "CDASHVAR": "DVSTTIM", "SDTMVAR": ["DVSTDTC"], "CDASHDOM": ["DV"]}, {"CDASHQUE": "What was the protocol deviation end date?", "CDASHVAR": "DVENDAT", "SDTMVAR": ["DVENDTC"], "CDASHDOM": ["DV"]}, {"CDASHQUE": "What was the protocol deviation end time?", "CDASHVAR": "DVENTIM", "SDTMVAR": ["DVENDTC"], "CDASHDOM": ["DV"]}, {"CDASHQUE": "What is the protocol deviation identifier?", "CDASHVAR": "DVSPID", "SDTMVAR": ["DVSPID"], "CDASHDOM": ["DV"]}, {"CDASHQUE": "Was the healthcare encounter data collected?", "CDASHVAR": "HOCSTAT", "SDTMVAR": ["HOSTAT"], "CDASHDOM": ["HO"]}, {"CDASHQUE": "Were there any healthcare encounters?", "CDASHVAR": "HOYN", "SDTMVAR": [], "CDASHDOM": ["HO"]}, {"CDASHQUE": "What was the category of the healthcare encounter?", "CDASHVAR": "HOCAT", "SDTMVAR": ["HOCAT"], "CDASHDOM": ["HO"]}, {"CDASHQUE": "What was the subcategory of the healthcare encounter?", "CDASHVAR": "HOSCAT", "SDTMVAR": ["HOSCAT"], "CDASHDOM": ["HO"]}, {"CDASHQUE": "Did the subject have [pre-specified healthcare encounter term]?", "CDASHVAR": "HOOCCUR", "SDTMVAR": ["HOOCCUR"], "CDASHDOM": ["HO"]}, {"CDASHQUE": "What was the reason the data was not collected?", "CDASHVAR": "HOREASND", "SDTMVAR": ["HOREASND"], "CDASHDOM": ["HO"]}, {"CDASHQUE": "What was the healthcare encounter identifier?", "CDASHVAR": "HOSPID", "SDTMVAR": ["HOSPID"], "CDASHDOM": ["HO"]}, {"CDASHQUE": "What was the healthcare encounter?; If [HODECOD], specify", "CDASHVAR": "HOTERM", "SDTMVAR": ["HOTERM"], "CDASHDOM": ["HO"]}, {"CDASHQUE": "What was the (standardized) healthcare encounter (term/code)?", "CDASHVAR": "HODECOD", "SDTMVAR": ["HODECOD"], "CDASHDOM": ["HO"]}, {"CDASHQUE": "What was the [healthcare encounter/HOTERM] [start/admission] date?", "CDASHVAR": "HOSTDAT", "SDTMVAR": ["HOSTDTC"], "CDASHDOM": ["HO"]}, {"CDASHQUE": "What was the [healthcare encounter/HOTERM] [start/admission] time?", "CDASHVAR": "HOSTTIM", "SDTMVAR": ["HOSTDTC"], "CDASHDOM": ["HO"]}, {"CDASHQUE": "What was the [healthcare encounter/HOTERM] [end/discharge] date?", "CDASHVAR": "HOENDAT", "SDTMVAR": ["HOENDTC"], "CDASHDOM": ["HO"]}, {"CDASHQUE": "What was the [healthcare encounter/HOTERM] [end/discharge] time?", "CDASHVAR": "HOENTIM", "SDTMVAR": ["HOENDTC"], "CDASHDOM": ["HO"]}, {"CDASHQUE": "What was the duration of the [healthcare encounter/HOTERM]?", "CDASHVAR": "HOCDUR", "SDTMVAR": ["HODUR"], "CDASHDOM": ["HO"]}, {"CDASHQUE": "What was the duration unit of the [healthcare encounter/HOTERM]?", "CDASHVAR": "HOCDURU", "SDTMVAR": ["HODUR"], "CDASHDOM": ["HO"]}, {"CDASHQUE": "Was the [healthcare encounter/HOTERM] ongoing?", "CDASHVAR": "HOONGO", "SDTMVAR": ["HOENRF", " HOENRTPT"], "CDASHDOM": ["HO"]}, {"CDASHQUE": "What was the reason for the [healthcare encounter/HOTERM]?", "CDASHVAR": "HOREAS", "SDTMVAR": ["QVAL"], "CDASHDOM": ["HO"]}, {"CDASHQUE": "What was the identifier for the adverse event(s), which precipitated the [healthcare encounter/HOTERM]?", "CDASHVAR": "HOAENO", "SDTMVAR": [], "CDASHDOM": ["HO"]}, {"CDASHQUE": "Were any medical conditions or events reported?; Has the subject had any medical conditions or events?", "CDASHVAR": "MHYN", "SDTMVAR": [], "CDASHDOM": ["MH"]}, {"CDASHQUE": "What was the category of the medical history?", "CDASHVAR": "MHCAT", "SDTMVAR": ["MHCAT"], "CDASHDOM": ["MH"]}, {"CDASHQUE": "What was the subcategory of the medical history?", "CDASHVAR": "MHSCAT", "SDTMVAR": ["MHSCAT"], "CDASHDOM": ["MH"]}, {"CDASHQUE": "What was the date the medical history was collected?", "CDASHVAR": "MHDAT", "SDTMVAR": ["MHDTC"], "CDASHDOM": ["MH"]}, {"CDASHQUE": "What is the medical condition or event identifier?", "CDASHVAR": "MHSPID", "SDTMVAR": ["MHSPID"], "CDASHDOM": ["MH"]}, {"CDASHQUE": "What was the medical history event date type?", "CDASHVAR": "MHEVDTYP", "SDTMVAR": ["QVAL"], "CDASHDOM": ["MH"]}, {"CDASHQUE": "What is the medical condition or event term?", "CDASHVAR": "MHTERM", "SDTMVAR": ["MHTERM"], "CDASHDOM": ["MH"]}, {"CDASHQUE": "Did the subject have [pre-specified medical condition/event/group of medical conditions]; Is the [pre-specified medical occurring ]?", "CDASHVAR": "MHOCCUR", "SDTMVAR": ["MHOCCUR"], "CDASHDOM": ["MH"]}, {"CDASHQUE": "", "CDASHVAR": "MHPRESP", "SDTMVAR": ["MHPRESP"], "CDASHDOM": ["MH"]}, {"CDASHQUE": "Did the medical condition or event start prior to [MHSTTPT]?; Did the medical condition or event start prior to study start?", "CDASHVAR": "MHPRIOR", "SDTMVAR": ["MHSTTPT", " MHSTRF"], "CDASHDOM": ["MH"]}, {"CDASHQUE": "Is the medical condition or event ongoing?", "CDASHVAR": "MHONGO", "SDTMVAR": ["MHENRF", " MHENRTPT"], "CDASHDOM": ["MH"]}, {"CDASHQUE": "Is the medical condition or event under control?", "CDASHVAR": "MHCTRL", "SDTMVAR": ["QVAL"], "CDASHDOM": ["MH"]}, {"CDASHQUE": "What was the medical condition or event start date?", "CDASHVAR": "MHSTDAT", "SDTMVAR": ["MHSTDTC"], "CDASHDOM": ["MH"]}, {"CDASHQUE": "What was the medical condition or event end date?", "CDASHVAR": "MHENDAT", "SDTMVAR": ["MHENDTC"], "CDASHDOM": ["MH"]}, {"CDASHQUE": "What was the anatomical location of the medical condition or event?", "CDASHVAR": "MHLOC", "SDTMVAR": ["MHLOC"], "CDASHDOM": ["MH"]}, {"CDASHQUE": "What was the side of the anatomical location of the medical condition or event?", "CDASHVAR": "MHLAT", "SDTMVAR": ["MHLAT"], "CDASHDOM": ["MH"]}, {"CDASHQUE": "What was the directionality of the anatomical location of the medical condition or event?", "CDASHVAR": "MHDIR", "SDTMVAR": ["MHDIR"], "CDASHDOM": ["MH"]}, {"CDASHQUE": "What was the portion or totality of the anatomical location of the of the medical condition or event?", "CDASHVAR": "MHPORTOT", "SDTMVAR": ["MHPORTOT"], "CDASHDOM": ["MH"]}, {"CDASHQUE": "", "CDASHVAR": "MHMODIFY", "SDTMVAR": ["MHMODIFY"], "CDASHDOM": ["MH"]}, {"CDASHQUE": "", "CDASHVAR": "MHDECOD", "SDTMVAR": ["MHDECOD"], "CDASHDOM": ["MH"]}, {"CDASHQUE": "", "CDASHVAR": "MHLLT", "SDTMVAR": ["MHLLT"], "CDASHDOM": ["MH"]}, {"CDASHQUE": "", "CDASHVAR": "MHLLTCD", "SDTMVAR": ["MHLLTCD"], "CDASHDOM": ["MH"]}, {"CDASHQUE": "", "CDASHVAR": "MHPTCD", "SDTMVAR": ["MHPTCD"], "CDASHDOM": ["MH"]}, {"CDASHQUE": "", "CDASHVAR": "MHHLT", "SDTMVAR": ["MHHLT"], "CDASHDOM": ["MH"]}, {"CDASHQUE": "", "CDASHVAR": "MHHLTCD", "SDTMVAR": ["MHHLTCD"], "CDASHDOM": ["MH"]}, {"CDASHQUE": "", "CDASHVAR": "MHHLGT", "SDTMVAR": ["MHHLGT"], "CDASHDOM": ["MH"]}, {"CDASHQUE": "", "CDASHVAR": "MHHLGTCD", "SDTMVAR": ["MHHLGTCD"], "CDASHDOM": ["MH"]}, {"CDASHQUE": "", "CDASHVAR": "MHSOC", "SDTMVAR": ["MHSOC"], "CDASHDOM": ["MH"]}, {"CDASHQUE": "", "CDASHVAR": "MHSOCCD", "SDTMVAR": ["MHSOCCD"], "CDASHDOM": ["MH"]}, {"CDASHQUE": "What was the date the drug accountability assessment was performed?", "CDASHVAR": "DADAT", "SDTMVAR": ["DADTC"], "CDASHDOM": ["DA"]}, {"CDASHQUE": "Was dispensed amount collected?", "CDASHVAR": "DISPAMT_DAPERF", "SDTMVAR": ["DASTAT"], "CDASHDOM": ["DA"]}, {"CDASHQUE": "What was the type of treatment dispensed?", "CDASHVAR": "DISPAMT_DACAT", "SDTMVAR": ["DACAT"], "CDASHDOM": ["DA"]}, {"CDASHQUE": "What was the name of the treatment dispensed?", "CDASHVAR": "DISPAMT_DASCAT", "SDTMVAR": ["DASCAT"], "CDASHDOM": ["DA"]}, {"CDASHQUE": "What was the dispensed treatment label identifier?", "CDASHVAR": "DISPAMT_DAREFID", "SDTMVAR": ["DAREFID"], "CDASHDOM": ["DA"]}, {"CDASHQUE": "What is the amount dispensed?", "CDASHVAR": "DISPAMT_DAORRES", "SDTMVAR": ["DAORRES", " DATEST", " DATESTCD"], "CDASHDOM": ["DA"]}, {"CDASHQUE": "What was the unit?", "CDASHVAR": "DISPAMT_DAORRESU", "SDTMVAR": ["DAORRESU"], "CDASHDOM": ["DA"]}, {"CDASHQUE": "Was returned amount collected?", "CDASHVAR": "RETAMT_DAPERF", "SDTMVAR": ["DASTAT"], "CDASHDOM": ["DA"]}, {"CDASHQUE": "What was the type of treatment returned?", "CDASHVAR": "RETAMT_DACAT", "SDTMVAR": ["DACAT"], "CDASHDOM": ["DA"]}, {"CDASHQUE": "What was the name of the treatment returned?", "CDASHVAR": "RETAMT_DASCAT", "SDTMVAR": ["DASCAT"], "CDASHDOM": ["DA"]}, {"CDASHQUE": "What was the returned treatment label identifier?", "CDASHVAR": "RETAMT_DAREFID", "SDTMVAR": ["DAREFID"], "CDASHDOM": ["DA"]}, {"CDASHQUE": "What is the amount returned?", "CDASHVAR": "RETAMT_DAORRES", "SDTMVAR": ["DAORRES", " DATEST", " DATESTCD"], "CDASHDOM": ["DA"]}, {"CDASHQUE": "What was the unit?", "CDASHVAR": "RETAMT_DAORRESU", "SDTMVAR": ["DAORRESU"], "CDASHDOM": ["DA"]}, {"CDASHQUE": "What is the visit name?", "CDASHVAR": "VISIT", "SDTMVAR": ["VISIT"], "CDASHDOM": ["DA", "DD", "EG", "IE", "LB", "MI", "PC", "PE", "SC", "RP", "SR", "VS"]}, {"CDASHQUE": "What [is/was] the date of the visit?", "CDASHVAR": "VISDAT", "SDTMVAR": [], "CDASHDOM": ["DA", "DD", "EG", "IE", "LB", "MI", "PC", "PE", "SC", "RP", "SR", "VS"]}, {"CDASHQUE": "What is the test group identifier?", "CDASHVAR": "DAGRPID", "SDTMVAR": ["DAGRPID"], "CDASHDOM": ["DA"]}, {"CDASHQUE": "Was [DATEST] collected?", "CDASHVAR": "[DATESTCD]_DAPERF", "SDTMVAR": ["DASTAT"], "CDASHDOM": ["DA"]}, {"CDASHQUE": "What was the type of treatment for which drug accountability was assessed?", "CDASHVAR": "[DATESTCD]_DACAT", "SDTMVAR": ["DACAT"], "CDASHDOM": ["DA"]}, {"CDASHQUE": "What was the name of the treatment for which drug accountability was assessed?", "CDASHVAR": "[DATESTCD]_DASCAT", "SDTMVAR": ["DASCAT"], "CDASHDOM": ["DA"]}, {"CDASHQUE": "What is the [DATEST] treatment label identifier?", "CDASHVAR": "[DATESTCD]_DAREFID", "SDTMVAR": ["DAREFID"], "CDASHDOM": ["DA"]}, {"CDASHQUE": "What was the date [DATEST] drug accountability was assessed?", "CDASHVAR": "[DATESTCD]_DADAT", "SDTMVAR": ["DADTC"], "CDASHDOM": ["DA"]}, {"CDASHQUE": "What is the amount of the [DATEST] drug accountability assessment?", "CDASHVAR": "[DATESTCD]_DAORRES", "SDTMVAR": ["DAORRES", " DATEST", " DATESTCD"], "CDASHDOM": ["DA"]}, {"CDASHQUE": "What was the unit of the [DATEST] result?", "CDASHVAR": "[DATESTCD]_DAORRESU", "SDTMVAR": ["DAORRESU"], "CDASHDOM": ["DA"]}, {"CDASHQUE": "Was drug accountability performed?", "CDASHVAR": "DAPERF", "SDTMVAR": ["DASTAT"], "CDASHDOM": ["DA"]}, {"CDASHQUE": "What was the type of treatment for which drug accountability was assessed?", "CDASHVAR": "DACAT", "SDTMVAR": ["DACAT"], "CDASHDOM": ["DA"]}, {"CDASHQUE": "What was the name of the treatment for which drug accountability was assessed?", "CDASHVAR": "DASCAT", "SDTMVAR": ["DASCAT"], "CDASHDOM": ["DA"]}, {"CDASHQUE": "What was the treatment label identifier?", "CDASHVAR": "DAREFID", "SDTMVAR": ["DAREFID"], "CDASHDOM": ["DA"]}, {"CDASHQUE": "What was the drug accountability being assessed?", "CDASHVAR": "DATEST", "SDTMVAR": ["DATEST", " DATESTCD"], "CDASHDOM": ["DA"]}, {"CDASHQUE": "What is the result of the drug accountability assessment?", "CDASHVAR": "DAORRES", "SDTMVAR": ["DAORRES"], "CDASHDOM": ["DA"]}, {"CDASHQUE": "What was the unit?", "CDASHVAR": "DAORRESU", "SDTMVAR": ["DAORRESU"], "CDASHDOM": ["DA"]}, {"CDASHQUE": "What is the primary cause of death?", "CDASHVAR": "PRCDTH_DDORRES", "SDTMVAR": ["DDORRES", " DDTEST", " DDTESTCD", ""], "CDASHDOM": ["DD"]}, {"CDASHQUE": "What is the secondary cause of death?", "CDASHVAR": "SECDTH_DDORRES", "SDTMVAR": ["DDORRES", " DDTEST", " DDTESTCD", ""], "CDASHDOM": ["DD"]}, {"CDASHQUE": "What is the location of death?", "CDASHVAR": "LOCDTH_DDORRES", "SDTMVAR": ["DDORRES", " DDTEST", " DDTESTCD", ""], "CDASHDOM": ["DD"]}, {"CDASHQUE": "What is the category of the death detail assessment?", "CDASHVAR": "DDCAT", "SDTMVAR": ["DDCAT"], "CDASHDOM": ["DD"]}, {"CDASHQUE": "What is the subcategory of the death detail assessment?", "CDASHVAR": "DDSCAT", "SDTMVAR": ["DDSCAT"], "CDASHDOM": ["DD"]}, {"CDASHQUE": "Were any death detail assessments collected?", "CDASHVAR": "DDYN", "SDTMVAR": [], "CDASHDOM": ["DD"]}, {"CDASHQUE": "What was the date [DDTESTCD] assessment was collected?", "CDASHVAR": "[DDTESTCD]_DDDAT", "SDTMVAR": ["DDDTC"], "CDASHDOM": ["DD"]}, {"CDASHQUE": "What was the death detail assessment identifier?", "CDASHVAR": "DDSPID", "SDTMVAR": ["DDSPID"], "CDASHDOM": ["DD"]}, {"CDASHQUE": "What was the death detail assessment result?", "CDASHVAR": "DDTESTCD_DDORRES", "SDTMVAR": ["DDORRES", " DDTEST", " DDTESTCD", ""], "CDASHDOM": ["DD"]}, {"CDASHQUE": "Who provided the death detail assessment information?", "CDASHVAR": "DDEVAL", "SDTMVAR": ["DDEVAL"], "CDASHDOM": ["DD"]}, {"CDASHQUE": "What was the date death detail assessments were collected?", "CDASHVAR": "DDDAT", "SDTMVAR": ["DDDTC"], "CDASHDOM": ["DD"]}, {"CDASHQUE": "What was the death detail assessment test name?", "CDASHVAR": "DDTEST", "SDTMVAR": ["DDTEST", " DDTESTCD"], "CDASHDOM": ["DD"]}, {"CDASHQUE": "What was the result of the death detail assessment?", "CDASHVAR": "DDORRES", "SDTMVAR": ["DDORRES"], "CDASHDOM": ["DD"]}, {"CDASHQUE": "What was the category of the ECG finding?", "CDASHVAR": "EGCAT", "SDTMVAR": ["EGCAT"], "CDASHDOM": ["EG"]}, {"CDASHQUE": "What was the subcategory of the ECG finding?", "CDASHVAR": "EGSCAT", "SDTMVAR": ["EGSCAT"], "CDASHDOM": ["EG"]}, {"CDASHQUE": "Was the ECG performed?", "CDASHVAR": "EGPERF", "SDTMVAR": ["EGSTAT"], "CDASHDOM": ["EG"]}, {"CDASHQUE": "What was the (ECG) [reference identifier/accession number]?", "CDASHVAR": "EGREFID", "SDTMVAR": ["EGREFID"], "CDASHDOM": ["EG"]}, {"CDASHQUE": "What was the method used for the ECG?", "CDASHVAR": "EGMETHOD", "SDTMVAR": ["EGMETHOD"], "CDASHDOM": ["EG"]}, {"CDASHQUE": "What was the method used to measure ECG?", "CDASHVAR": "EGMETHOD", "SDTMVAR": ["EGMETHOD"], "CDASHDOM": ["EG"]}, {"CDASHQUE": "What was the position of the subject during the ECG measurement?", "CDASHVAR": "EGPOS", "SDTMVAR": ["EGPOS"], "CDASHDOM": ["EG"]}, {"CDASHQUE": "What was the position of the subject during ECG measurement?", "CDASHVAR": "EGPOS", "SDTMVAR": ["EGPOS"], "CDASHDOM": ["EG"]}, {"CDASHQUE": "What was the date of the ECG?", "CDASHVAR": "EGDAT", "SDTMVAR": ["EGDTC"], "CDASHDOM": ["EG"]}, {"CDASHQUE": "What was the ECG date?", "CDASHVAR": "EGDAT", "SDTMVAR": ["EGDTC"], "CDASHDOM": ["EG"]}, {"CDASHQUE": "What was date of the ECG?", "CDASHVAR": "EGDAT", "SDTMVAR": ["EGDTC"], "CDASHDOM": ["EG"]}, {"CDASHQUE": "What was the planned time point of the ECG measurement?", "CDASHVAR": "EGTPT", "SDTMVAR": ["EGTPT"], "CDASHDOM": ["EG"]}, {"CDASHQUE": "What was the time the ECG was collected?", "CDASHVAR": "EGTIM", "SDTMVAR": ["EGDTC"], "CDASHDOM": ["EG"]}, {"CDASHQUE": "Who provided the information?; Who was the evaluator?", "CDASHVAR": "EGEVAL", "SDTMVAR": ["EGEVAL"], "CDASHDOM": ["EG"]}, {"CDASHQUE": "What was the interpretation of the ECG?", "CDASHVAR": "INTP_EGORRES", "SDTMVAR": ["EGORRES"], "CDASHDOM": ["EG"]}, {"CDASHQUE": "Was the ECG clinically significant?", "CDASHVAR": "EGCLSIG", "SDTMVAR": ["QVAL"], "CDASHDOM": ["EG"]}, {"CDASHQUE": "What was the identifier for the medical history event that was reported as a clinically significant ECG finding?", "CDASHVAR": "EGMHNO", "SDTMVAR": [], "CDASHDOM": ["EG"]}, {"CDASHQUE": "What was the identifier for the adverse event(s) that was reported as a clinically significant ECG finding?", "CDASHVAR": "EGAENO", "SDTMVAR": [], "CDASHDOM": ["EG"]}, {"CDASHQUE": "What was the ECG test name?", "CDASHVAR": "EGTEST", "SDTMVAR": ["EGTEST", " EGTESTCD"], "CDASHDOM": ["EG"]}, {"CDASHQUE": "What was the result of the ECG?", "CDASHVAR": "EGORRES", "SDTMVAR": ["EGORRES"], "CDASHDOM": ["EG"]}, {"CDASHQUE": "What was the unit of the ECG results?", "CDASHVAR": "EGORRESU", "SDTMVAR": ["EGORRESU"], "CDASHDOM": ["EG"]}, {"CDASHQUE": "Were all eligibility criteria met?", "CDASHVAR": "IEYN", "SDTMVAR": [], "CDASHDOM": ["IE"]}, {"CDASHQUE": "What was the date the eligibility criteria assessment was performed?", "CDASHVAR": "IEDAT", "SDTMVAR": ["IEDTC"], "CDASHDOM": ["IE"]}, {"CDASHQUE": "What was the category of the criterion?", "CDASHVAR": "IECAT", "SDTMVAR": ["IECAT"], "CDASHDOM": ["IE"]}, {"CDASHQUE": "What was the subcategory of the criterion?", "CDASHVAR": "IESCAT", "SDTMVAR": ["IESCAT"], "CDASHDOM": ["IE"]}, {"CDASHQUE": "What was the identifier of the inclusion criterion the subject did not meet or the exclusion criterion the subject met ?", "CDASHVAR": "IETESTCD", "SDTMVAR": ["IETESTCD"], "CDASHDOM": ["IE"]}, {"CDASHQUE": "What was the description of the inclusion criterion the subject did not meet or the exclusion criterion the subject met?", "CDASHVAR": "IETEST", "SDTMVAR": ["IETEST"], "CDASHDOM": ["IE"]}, {"CDASHQUE": "What is the result?", "CDASHVAR": "IEORRES", "SDTMVAR": ["IEORRES"], "CDASHDOM": ["IE"]}, {"CDASHQUE": "Was the sample collected?; Was the lab performed?", "CDASHVAR": "LBPERF", "SDTMVAR": ["LBSTAT"], "CDASHDOM": ["LB"]}, {"CDASHQUE": "Was the lab performed?", "CDASHVAR": "LBPERF", "SDTMVAR": ["LBSTAT"], "CDASHDOM": ["LB"]}, {"CDASHQUE": "What was the date of the lab specimen collection?", "CDASHVAR": "LBDAT", "SDTMVAR": ["LBDTC"], "CDASHDOM": ["LB"]}, {"CDASHQUE": "What was the date of lab specimen collection?", "CDASHVAR": "LBDAT", "SDTMVAR": ["LBDTC"], "CDASHDOM": ["LB"]}, {"CDASHQUE": "What was the (start) time of the lab specimen collection?", "CDASHVAR": "LBTIM", "SDTMVAR": ["LBDTC"], "CDASHDOM": ["LB"]}, {"CDASHQUE": "What was the name of the lab panel?", "CDASHVAR": "LBCAT", "SDTMVAR": ["LBCAT"], "CDASHDOM": ["LB"]}, {"CDASHQUE": "What was name of the lab panel?", "CDASHVAR": "LBCAT", "SDTMVAR": ["LBCAT"], "CDASHDOM": ["LB"]}, {"CDASHQUE": "What was name of the lab sub-panel?", "CDASHVAR": "LBSCAT", "SDTMVAR": ["LBSCAT"], "CDASHDOM": ["LB"]}, {"CDASHQUE": "What was the planned time point of the lab?", "CDASHVAR": "LBTPT", "SDTMVAR": ["LBTPT"], "CDASHDOM": ["LB"]}, {"CDASHQUE": "Were the protocol-defined testing conditions met?", "CDASHVAR": "LBCOND", "SDTMVAR": ["QVAL"], "CDASHDOM": ["LB"]}, {"CDASHQUE": "Was the subject fasting?", "CDASHVAR": "LBFAST", "SDTMVAR": ["LBFAST"], "CDASHDOM": ["LB"]}, {"CDASHQUE": "What was the (laboratory test) [reference identifier/accession number]?", "CDASHVAR": "LBREFID", "SDTMVAR": ["LBREFID"], "CDASHDOM": ["LB"]}, {"CDASHQUE": "What was the lab test name?", "CDASHVAR": "LBTEST", "SDTMVAR": ["LBTEST", " LBTESTCD"], "CDASHDOM": ["LB"]}, {"CDASHQUE": "What is the lab test name?", "CDASHVAR": "LBTEST", "SDTMVAR": ["LBTEST", " LBTESTCD"], "CDASHDOM": ["LB"]}, {"CDASHQUE": "What was the result of the test?", "CDASHVAR": "LBORRES", "SDTMVAR": ["LBORRES"], "CDASHDOM": ["LB"]}, {"CDASHQUE": "What was the result of the lab test?", "CDASHVAR": "LBORRES", "SDTMVAR": ["LBORRES"], "CDASHDOM": ["LB"]}, {"CDASHQUE": "Was this result clinically significant?", "CDASHVAR": "LBCLSIG", "SDTMVAR": ["QVAL"], "CDASHDOM": ["LB"]}, {"CDASHQUE": "What was the method used for the test or examination?", "CDASHVAR": "LBMETHOD", "SDTMVAR": ["LBMETHOD"], "CDASHDOM": ["LB"]}, {"CDASHQUE": "What was the method used for the lab test or examination?", "CDASHVAR": "LBMETHOD", "SDTMVAR": ["LBMETHOD"], "CDASHDOM": ["LB"]}, {"CDASHQUE": "What was the condition of the specimen?", "CDASHVAR": "LBSPCCND", "SDTMVAR": ["LBSPCCND"], "CDASHDOM": ["LB"]}, {"CDASHQUE": "What was the unit of the lab result?", "CDASHVAR": "LBORRESU", "SDTMVAR": ["LBORRESU"], "CDASHDOM": ["LB"]}, {"CDASHQUE": "What is the Toxicity Grade?", "CDASHVAR": "LBTOXGR", "SDTMVAR": ["LBTOXGR"], "CDASHDOM": ["LB"]}, {"CDASHQUE": "What is the description of the toxicity?", "CDASHVAR": "LBTOX", "SDTMVAR": ["LBTOX"], "CDASHDOM": ["LB"]}, {"CDASHQUE": "What was the lower limit of the reference range for this lab test?", "CDASHVAR": "LBORNRLO", "SDTMVAR": ["LBORNRLO"], "CDASHDOM": ["LB"]}, {"CDASHQUE": "What was the high limit of the reference range for this lab test?", "CDASHVAR": "LBORNRHI", "SDTMVAR": ["LBORNRHI"], "CDASHDOM": ["LB"]}, {"CDASHQUE": "How [did/do] the reported values compare within the [reference/normal/expected] range?", "CDASHVAR": "LBNRIND", "SDTMVAR": ["LBNRIND"], "CDASHDOM": ["LB"]}, {"CDASHQUE": "What was the name of the laboratory used?", "CDASHVAR": "LBNAM", "SDTMVAR": ["LBNAM"], "CDASHDOM": ["LB"]}, {"CDASHQUE": "Was the microscopic examination performed?", "CDASHVAR": "MIPERF", "SDTMVAR": ["MISTAT"], "CDASHDOM": ["MI"]}, {"CDASHQUE": "What was the (microscopic test) [reference identifier/accession number]?", "CDASHVAR": "MIREFID", "SDTMVAR": ["MIREFID"], "CDASHDOM": ["MI"]}, {"CDASHQUE": "What was the specimen collection date?", "CDASHVAR": "MIDAT", "SDTMVAR": ["MIDTC"], "CDASHDOM": ["MI"]}, {"CDASHQUE": "What was the date of the specimen collection?", "CDASHVAR": "MIDAT", "SDTMVAR": ["MIDTC"], "CDASHDOM": ["MI"]}, {"CDASHQUE": "What was the (start) time of the specimen collection?", "CDASHVAR": "MITIM", "SDTMVAR": ["MIDTC"], "CDASHDOM": ["MI"]}, {"CDASHQUE": "What was the category of the microscopic finding?", "CDASHVAR": "MICAT", "SDTMVAR": ["MICAT"], "CDASHDOM": ["MI"]}, {"CDASHQUE": "What was the subcategory of the microscopic finding?", "CDASHVAR": "MISCAT", "SDTMVAR": ["MISCAT"], "CDASHDOM": ["MI"]}, {"CDASHQUE": "What is the specimen material type?", "CDASHVAR": "MISPEC", "SDTMVAR": ["MISPEC"], "CDASHDOM": ["MI"]}, {"CDASHQUE": "What was the condition of the specimen?", "CDASHVAR": "MISPCCND", "SDTMVAR": ["MISPCCND"], "CDASHDOM": ["MI"]}, {"CDASHQUE": "What was the anatomical location were the specimen was collection?", "CDASHVAR": "MILOC", "SDTMVAR": ["MILOC"], "CDASHDOM": ["MI"]}, {"CDASHQUE": "What was the side of the anatomical location of the specimen collection?", "CDASHVAR": "MILAT", "SDTMVAR": ["MILAT"], "CDASHDOM": ["MI"]}, {"CDASHQUE": "What was the directionality of the anatomical location of the specimen collection?", "CDASHVAR": "MIDIR", "SDTMVAR": ["MIDIR"], "CDASHDOM": ["MI"]}, {"CDASHQUE": "What is the microscopic test identifier?", "CDASHVAR": "MISPID", "SDTMVAR": ["MISPID"], "CDASHDOM": ["MI"]}, {"CDASHQUE": "What was the microscopic examination test name?", "CDASHVAR": "MITEST", "SDTMVAR": ["MITEST", " MITESTCD"], "CDASHDOM": ["MI"]}, {"CDASHQUE": "What was the microscopic examination detail?", "CDASHVAR": "MITSTDTL", "SDTMVAR": ["MITSTDTL"], "CDASHDOM": ["MI"]}, {"CDASHQUE": "What was the result of the examination?", "CDASHVAR": "MIORRES", "SDTMVAR": ["MIORRES"], "CDASHDOM": ["MI"]}, {"CDASHQUE": "What was the unit of the result?", "CDASHVAR": "MIORRESU", "SDTMVAR": ["MIORRESU"], "CDASHDOM": ["MI"]}, {"CDASHQUE": "Was the result clinically significant?", "CDASHVAR": "MICLSIG", "SDTMVAR": ["QVAL"], "CDASHDOM": ["MI"]}, {"CDASHQUE": "What was the result category?", "CDASHVAR": "MIRESCAT", "SDTMVAR": ["MIRESCAT"], "CDASHDOM": ["MI"]}, {"CDASHQUE": "What was the name of the vendor used?", "CDASHVAR": "MINAM", "SDTMVAR": ["MINAM"], "CDASHDOM": ["MI"]}, {"CDASHQUE": "What was the method used for the test or examination?", "CDASHVAR": "MIMETHOD", "SDTMVAR": ["MIMETHOD"], "CDASHDOM": ["MI"]}, {"CDASHQUE": "Who was the evaluator?", "CDASHVAR": "MIEVAL", "SDTMVAR": ["MIEVAL"], "CDASHDOM": ["MI"]}, {"CDASHQUE": "Were PK samples collected?", "CDASHVAR": "PCPERF", "SDTMVAR": ["PCSTAT"], "CDASHDOM": ["PC"]}, {"CDASHQUE": "Indicate if the PK sample was not done.", "CDASHVAR": "PCSTAT", "SDTMVAR": ["PCSTAT"], "CDASHDOM": ["PC"]}, {"CDASHQUE": "What was the reason the PK sample was not collected?", "CDASHVAR": "PCREASND", "SDTMVAR": ["PCREASND"], "CDASHDOM": ["PC"]}, {"CDASHQUE": "What was the date of the PK sample collection?", "CDASHVAR": "PCDAT", "SDTMVAR": ["PCDTC"], "CDASHDOM": ["PC"]}, {"CDASHQUE": "Check if the specimen/sample was collected on the same date as the (last/previous specimen/sample) (collected/collection ended)?", "CDASHVAR": "PCDATFL", "SDTMVAR": [], "CDASHDOM": ["PC"]}, {"CDASHQUE": "What was the time of the PK sample collection?", "CDASHVAR": "PCTIM", "SDTMVAR": ["PCDTC"], "CDASHDOM": ["PC"]}, {"CDASHQUE": "What was the (start) time of the PK sample collection?", "CDASHVAR": "PCTIM", "SDTMVAR": ["PCDTC"], "CDASHDOM": ["PC"]}, {"CDASHQUE": "What was the planned time point of the PK sample collection?", "CDASHVAR": "PCTPT", "SDTMVAR": ["PCTPT"], "CDASHDOM": ["PC"]}, {"CDASHQUE": "Was the subject fasting?", "CDASHVAR": "PCFAST", "SDTMVAR": ["PCFAST"], "CDASHDOM": ["PC"]}, {"CDASHQUE": "Were the protocol-defined testing conditions met?", "CDASHVAR": "PCCOND", "SDTMVAR": ["QVAL"], "CDASHDOM": ["PC"]}, {"CDASHQUE": "What was the (PK) [reference identifier/accession number]?", "CDASHVAR": "PCREFID", "SDTMVAR": ["PCREFID"], "CDASHDOM": ["PC"]}, {"CDASHQUE": "What was the specimen material type?", "CDASHVAR": "PCSPEC", "SDTMVAR": ["PCSPEC"], "CDASHDOM": ["PC"]}, {"CDASHQUE": "What was the test name?", "CDASHVAR": "PCTEST", "SDTMVAR": ["PCTEST", " PCTESTCD"], "CDASHDOM": ["PC"]}, {"CDASHQUE": "What was the result of the test?", "CDASHVAR": "PCORRES", "SDTMVAR": ["PCORRES"], "CDASHDOM": ["PC"]}, {"CDASHQUE": "What was the unit of the result?", "CDASHVAR": "PCORRESU", "SDTMVAR": ["PCORRESU"], "CDASHDOM": ["PC"]}, {"CDASHQUE": "What was the end date of the specimen collection?", "CDASHVAR": "PCENDAT", "SDTMVAR": ["PCENDTC"], "CDASHDOM": ["PC"]}, {"CDASHQUE": "What was the specimen collection end time?", "CDASHVAR": "PCENTIM", "SDTMVAR": ["PCENDTC"], "CDASHDOM": ["PC"]}, {"CDASHQUE": "Was the physical examination performed?", "CDASHVAR": "PEPERF", "SDTMVAR": ["PESTAT"], "CDASHDOM": ["PE"]}, {"CDASHQUE": "What was category of the physical examination?", "CDASHVAR": "PECAT", "SDTMVAR": ["PECAT"], "CDASHDOM": ["PE"]}, {"CDASHQUE": "What was subcategory of the physical examination?", "CDASHVAR": "PESCAT", "SDTMVAR": ["PESCAT"], "CDASHDOM": ["PE"]}, {"CDASHQUE": "What was the date of the physical examination?", "CDASHVAR": "PEDAT", "SDTMVAR": ["PEDTC"], "CDASHDOM": ["PE"]}, {"CDASHQUE": "What was the time of the physical examination?", "CDASHVAR": "PETIM", "SDTMVAR": ["PEDTC"], "CDASHDOM": ["PE"]}, {"CDASHQUE": "What is the physical examination identifier?", "CDASHVAR": "PESPID", "SDTMVAR": ["PESPID"], "CDASHDOM": ["PE"]}, {"CDASHQUE": "What was the body system examined?", "CDASHVAR": "PETEST", "SDTMVAR": ["PETEST", " PETESTCD"], "CDASHDOM": ["PE"]}, {"CDASHQUE": "Were the results normal, abnormal or not done?", "CDASHVAR": "PERES", "SDTMVAR": ["PEORRES"], "CDASHDOM": ["PE"]}, {"CDASHQUE": "If the result was abnormal, what were the findings?", "CDASHVAR": "PEDESC", "SDTMVAR": ["PEORRES"], "CDASHDOM": ["PE"]}, {"CDASHQUE": "Was the physical examination result clinically significant?", "CDASHVAR": "PECLSIG", "SDTMVAR": ["QVAL"], "CDASHDOM": ["PE"]}, {"CDASHQUE": "Who was the evaluator?", "CDASHVAR": "PEEVAL", "SDTMVAR": ["PEEVAL"], "CDASHDOM": ["PE"]}, {"CDASHQUE": "What is the reason that data was not collected?", "CDASHVAR": "PEREASND", "SDTMVAR": ["PEREASND"], "CDASHDOM": ["PE"]}, {"CDASHQUE": "What is/was the [body system/ organ system]?", "CDASHVAR": "PEBODSYS", "SDTMVAR": ["PEBODSYS"], "CDASHDOM": ["PE"]}, {"CDASHQUE": "", "CDASHVAR": "PEMODIFY", "SDTMVAR": ["PEMODIFY"], "CDASHDOM": ["PE"]}, {"CDASHQUE": "What was the anatomical location of the body system examined or the finding?", "CDASHVAR": "PELOC", "SDTMVAR": ["PELOC"], "CDASHDOM": ["PE"]}, {"CDASHQUE": "What was the side of the anatomical location of the body system examined or the finding?", "CDASHVAR": "PELAT", "SDTMVAR": ["PELAT"], "CDASHDOM": ["PE"]}, {"CDASHQUE": "What was the directionality of the anatomical location of the of the body system examined or the finding?", "CDASHVAR": "PEDIR", "SDTMVAR": ["PEDIR"], "CDASHDOM": ["PE"]}, {"CDASHQUE": "What was the portion or totality of the anatomical location of the body system examined or the finding?", "CDASHVAR": "PEPORTOT", "SDTMVAR": ["PEPORTOT"], "CDASHDOM": ["PE"]}, {"CDASHQUE": "What was the method used for the test or examination?", "CDASHVAR": "PEMETHOD", "SDTMVAR": ["PEMETHOD"], "CDASHDOM": ["PE"]}, {"CDASHQUE": "What is the subject's marital status?", "CDASHVAR": "MARISTAT_SCORRES", "SDTMVAR": ["SCORRES", "SCTEST", "SCTESTCD"], "CDASHDOM": ["SC"]}, {"CDASHQUE": "What is the subject's national origin?", "CDASHVAR": "NATORIG_SCORRES", "SDTMVAR": ["SCORRES", "SCTEST", "SCTESTCD"], "CDASHDOM": ["SC"]}, {"CDASHQUE": "What is the subject's education level?", "CDASHVAR": "EDLEVEL_SCORRES", "SDTMVAR": ["SCORRES", "SCTEST", "SCTESTCD"], "CDASHDOM": ["SC"]}, {"CDASHQUE": "What is the subject's skin type?", "CDASHVAR": "SKINTYP_SCORRES", "SDTMVAR": ["SCORRES", "SCTEST", "SCTESTCD"], "CDASHDOM": ["SC"]}, {"CDASHQUE": "What was the category of the subject characteristics??", "CDASHVAR": "[SCTESTCD]_SCCAT", "SDTMVAR": ["SCCAT"], "CDASHDOM": ["SC"]}, {"CDASHQUE": "What was the subcategory of the subject characteristics?", "CDASHVAR": "[SCTESTCD]_SCSCAT", "SDTMVAR": ["SCSCAT"], "CDASHDOM": ["SC"]}, {"CDASHQUE": "Were subject characteristics collected for [SCTESTCD]?", "CDASHVAR": "[SCTESTCD]_SCPERF", "SDTMVAR": ["SCSTAT"], "CDASHDOM": ["SC"]}, {"CDASHQUE": "What is the test group identifier?", "CDASHVAR": "SCGRPID", "SDTMVAR": ["SCGRPID"], "CDASHDOM": ["SC"]}, {"CDASHQUE": "What is the subject's [SCTEST]?", "CDASHVAR": "[SCTESTCD]_SCORRES", "SDTMVAR": ["SCORRES", "SCTEST", "SCTESTCD"], "CDASHDOM": ["SC"]}, {"CDASHQUE": "What was the category of the subject characteristics?", "CDASHVAR": "SCCAT", "SDTMVAR": ["SCCAT"], "CDASHDOM": ["SC"]}, {"CDASHQUE": "What was the subcategory of the subject characteristics?", "CDASHVAR": "SCSCAT", "SDTMVAR": ["SCSCAT"], "CDASHDOM": ["SC"]}, {"CDASHQUE": "Were subject characteristics collected?", "CDASHVAR": "SCPERF", "SDTMVAR": ["SCSTAT"], "CDASHDOM": ["SC"]}, {"CDASHQUE": "What is the subject characteristics identifier?", "CDASHVAR": "SCSPID", "SDTMVAR": ["SCSPID"], "CDASHDOM": ["SC"]}, {"CDASHQUE": "What was the date the subject characteristic(s) was collected?", "CDASHVAR": "SCDAT", "SDTMVAR": ["SCDTC"], "CDASHDOM": ["SC"]}, {"CDASHQUE": "What is the Subject Characteristics name?", "CDASHVAR": "SCTEST", "SDTMVAR": ["SCTEST", "SCTESTCD"], "CDASHDOM": ["SC"]}, {"CDASHQUE": "What is the subject's characteristic?", "CDASHVAR": "SCORRES", "SDTMVAR": ["SCORRES"], "CDASHDOM": ["SC"]}, {"CDASHQUE": "What was the category of the reproductive system?", "CDASHVAR": "RPCAT", "SDTMVAR": ["RPCAT"], "CDASHDOM": ["RP"]}, {"CDASHQUE": "What was the subcategory of the reproductive system?", "CDASHVAR": "RPSCAT", "SDTMVAR": ["RPSCAT"], "CDASHDOM": ["RP"]}, {"CDASHQUE": "Were there any reproductive system findings?", "CDASHVAR": "RPYN", "SDTMVAR": [], "CDASHDOM": ["RP"]}, {"CDASHQUE": "What is the reproductive identifier?", "CDASHVAR": "RPSPID", "SDTMVAR": ["RPSPID"], "CDASHDOM": ["RP"]}, {"CDASHQUE": "What is the reproductive finding name?", "CDASHVAR": "RPTEST", "SDTMVAR": ["RPTEST", " RPTESTCD"], "CDASHDOM": ["RP"]}, {"CDASHQUE": "What was the result for the reproductive system question?", "CDASHVAR": "RPORRES", "SDTMVAR": ["RPORRES"], "CDASHDOM": ["RP"]}, {"CDASHQUE": "What was the unit of the result?", "CDASHVAR": "RPORRESU", "SDTMVAR": ["RPORRESU"], "CDASHDOM": ["RP"]}, {"CDASHQUE": "What was the date the reproductive system question was collected?", "CDASHVAR": "RPDAT", "SDTMVAR": ["RPDTC"], "CDASHDOM": ["RP"]}, {"CDASHQUE": "What was the reason the reproductive system test was not collected?", "CDASHVAR": "RPREASND", "SDTMVAR": ["RPREASND"], "CDASHDOM": ["RP"]}, {"CDASHQUE": "What was the result of the flare size measurement?", "CDASHVAR": "FLARESZ_SRORRES", "SDTMVAR": ["SRORRES", "SRTEST", "SRTESTCD"], "CDASHDOM": ["SR"]}, {"CDASHQUE": "What was the unit of the flare size measurement?", "CDASHVAR": "FLARESZ_SRORRESU", "SDTMVAR": ["SRORRESU"], "CDASHDOM": ["SR"]}, {"CDASHQUE": "What was the result of the flare longest diameter measurement?", "CDASHVAR": "FLRLDIAM_SRORRES", "SDTMVAR": ["SRORRES", " SRTEST", " SRTESTCD"], "CDASHDOM": ["SR"]}, {"CDASHQUE": "What was the unit of the flare longest diameter measurement?", "CDASHVAR": "FLRLDIM_SRORRESU", "SDTMVAR": ["SRORRESU"], "CDASHDOM": ["SR"]}, {"CDASHQUE": "What was the result of the flare mean diameter measurement?", "CDASHVAR": "FLRMDIAM_SRORRES", "SDTMVAR": ["SRORRES", " SRTEST", "SRTESTCD"], "CDASHDOM": ["SR"]}, {"CDASHQUE": "What was the unit of the flare mean diameter measurement?", "CDASHVAR": "FLRMDIM_SRORRESU", "SDTMVAR": ["SRORRESU"], "CDASHDOM": ["SR"]}, {"CDASHQUE": "What was the result of the induration diameter measurement?", "CDASHVAR": "IDRLDIAM_SRORRES", "SDTMVAR": ["SRORRES", "SRTEST", " SRTESTCD"], "CDASHDOM": ["SR"]}, {"CDASHQUE": "What was the unit of the induration diameter measurement?", "CDASHVAR": "IDRLDIAM_SRORRESU", "SDTMVAR": ["SRORRESU"], "CDASHDOM": ["SR"]}, {"CDASHQUE": "What was the result of the wheal size measurement?", "CDASHVAR": "WHEALSZ_SRORRES", "SDTMVAR": ["SRORRES", " SRTEST", " SRTESTCD"], "CDASHDOM": ["SR"]}, {"CDASHQUE": "What was the unit of the wheal size measurement?", "CDASHVAR": "WHEALSZ_SRORRESU", "SDTMVAR": ["SRORRESU"], "CDASHDOM": ["SR"]}, {"CDASHQUE": "What was the result of the wheal longest diameter measurement?", "CDASHVAR": "WHLLDIAM_SRORRES", "SDTMVAR": ["SRORRES", " SRTEST", "SRTESTCD"], "CDASHDOM": ["SR"]}, {"CDASHQUE": "What was the unit for the wheal longest diameter measurement?", "CDASHVAR": "WHLLDIM_SRORRESU", "SDTMVAR": ["SRORRESU"], "CDASHDOM": ["SR"]}, {"CDASHQUE": "What was the result of the wheal mean diameter measurement?", "CDASHVAR": "WHLMDIAM_SRORRES", "SDTMVAR": ["SRORRES", "SRTEST", "SRTESTCD"], "CDASHDOM": ["SR"]}, {"CDASHQUE": "What was the unit of the wheal mean diameter measurement?", "CDASHVAR": "WHLMDIM_SRORRESU", "SDTMVAR": ["SRORRESU"], "CDASHDOM": ["SR"]}, {"CDASHQUE": "Was a skin response test performed?", "CDASHVAR": "SRPERF", "SDTMVAR": ["SRSTAT"], "CDASHDOM": ["SR"]}, {"CDASHQUE": "What was the reason the test was not done?", "CDASHVAR": "SRREASND", "SDTMVAR": ["SRREASND"], "CDASHDOM": ["SR"]}, {"CDASHQUE": "What was the category of the skin response?", "CDASHVAR": "SRCAT", "SDTMVAR": ["SRCAT"], "CDASHDOM": ["SR"]}, {"CDASHQUE": "What was the subcategory of the skin response?", "CDASHVAR": "SRSCAT", "SDTMVAR": ["SRSCAT"], "CDASHDOM": ["SR"]}, {"CDASHQUE": "What is the skin response identifier?", "CDASHVAR": "SRSPID", "SDTMVAR": ["SRSPID"], "CDASHDOM": ["SR"]}, {"CDASHQUE": "What intervention was performed to elicit the skin response?", "CDASHVAR": "SROBJ", "SDTMVAR": ["SROBJ"], "CDASHDOM": ["SR"]}, {"CDASHQUE": "What was the date of the [intervention] performed to elicit the skin response?", "CDASHVAR": "SRRFTDAT", "SDTMVAR": ["SRRFTDTC"], "CDASHDOM": ["SR"]}, {"CDASHQUE": "What was the time of the [intervention] performed to elicit the skin response?", "CDASHVAR": "SRRFTTIM", "SDTMVAR": ["SRRFTDTC"], "CDASHDOM": ["SR"]}, {"CDASHQUE": "What was the anatomical location of the skin response measurement?", "CDASHVAR": "SRLOC", "SDTMVAR": ["SRLOC"], "CDASHDOM": ["SR"]}, {"CDASHQUE": "What was the side of the anatomical location of the skin response measurement?", "CDASHVAR": "SRLAT", "SDTMVAR": ["SRLAT"], "CDASHDOM": ["SR"]}, {"CDASHQUE": "What was the skin response test name?", "CDASHVAR": "SRTEST", "SDTMVAR": ["SRTEST", "SRTESTCD"], "CDASHDOM": ["SR"]}, {"CDASHQUE": "What was the planned time point for skin response measurement?", "CDASHVAR": "SRTPT", "SDTMVAR": ["SRTPT"], "CDASHDOM": ["SR"]}, {"CDASHQUE": "What was the date of the skin response measurement?", "CDASHVAR": "SRDAT", "SDTMVAR": ["SRDTC"], "CDASHDOM": ["SR"]}, {"CDASHQUE": "What was the time of the skin response measurement?", "CDASHVAR": "SRTIM", "SDTMVAR": ["SRDTC"], "CDASHDOM": ["SR"]}, {"CDASHQUE": "What was the directionality of the anatomical location of the skin response measurement?", "CDASHVAR": "SRDIR", "SDTMVAR": ["SRDIR"], "CDASHDOM": ["SR"]}, {"CDASHQUE": "Who was the evaluator?", "CDASHVAR": "SREVAL", "SDTMVAR": ["SREVAL"], "CDASHDOM": ["SR"]}, {"CDASHQUE": "What was the identifier of the evaluator providing the skin response information?", "CDASHVAR": "SREVALID", "SDTMVAR": ["SREVALID"], "CDASHDOM": ["SR"]}, {"CDASHQUE": "What was the result of the skin response measurement?", "CDASHVAR": "SRORRES", "SDTMVAR": ["SRORRES"], "CDASHDOM": ["SR"]}, {"CDASHQUE": "What was the unit of the skin response measurement?", "CDASHVAR": "SRORRESU", "SDTMVAR": ["SRORRESU"], "CDASHDOM": ["SR"]}, {"CDASHQUE": "What was the unit of the measurement?", "CDASHVAR": "SRORRESU", "SDTMVAR": ["SRORRESU"], "CDASHDOM": ["SR"]}, {"CDASHQUE": "How [did/do] the reported values compare within the [reference/normal/expected] range?", "CDASHVAR": "SRNRIND", "SDTMVAR": ["SRNRIND"], "CDASHDOM": ["SR"]}, {"CDASHQUE": "Was the result clinically significant?", "CDASHVAR": "SRCLSIG", "SDTMVAR": ["QVAL"], "CDASHDOM": ["SR"]}, {"CDASHQUE": "Was a skin response test performed?", "CDASHVAR": "[SRTESTCD]_SRPERF", "SDTMVAR": ["SRSTAT"], "CDASHDOM": ["SR"]}, {"CDASHQUE": "What was the reason the test was not done?", "CDASHVAR": "[SRTESTCD]_SRREASND", "SDTMVAR": ["SRREASND"], "CDASHDOM": ["SR"]}, {"CDASHQUE": "What is the [SRTEST] group identifier?", "CDASHVAR": "SRGRPID", "SDTMVAR": ["SRGRPID"], "CDASHDOM": ["SR"]}, {"CDASHQUE": "What intervention was administered to evaluate the skin response?", "CDASHVAR": "[SRTESTCD]_SROBJ", "SDTMVAR": ["SROBJ"], "CDASHDOM": ["SR"]}, {"CDASHQUE": "What was the date the [intervention] was administered?", "CDASHVAR": "[SRTESTCD]_SRRFTDAT", "SDTMVAR": ["SRRFTDTC"], "CDASHDOM": ["SR"]}, {"CDASHQUE": "What was the time the [intervention] was administered?", "CDASHVAR": "[SRTESTCD]_SRRFTTIM", "SDTMVAR": ["SRRFTDTC"], "CDASHDOM": ["SR"]}, {"CDASHQUE": "What was the anatomical location of the skin response measurement?", "CDASHVAR": "[SRTESTCD]_SRLOC", "SDTMVAR": ["SRLOC"], "CDASHDOM": ["SR"]}, {"CDASHQUE": "What was the side of the anatomical location of the skin response measurement?", "CDASHVAR": "[SRTESTCD]_SRLAT", "SDTMVAR": ["SRLAT"], "CDASHDOM": ["SR"]}, {"CDASHQUE": "What was the planned time point for skin response measurement?", "CDASHVAR": "[SRTESTCD]_SRTPT", "SDTMVAR": ["SRTPT"], "CDASHDOM": ["SR"]}, {"CDASHQUE": "What was the date the skin response was assessed?", "CDASHVAR": "[SRTESTCD]_SRDAT", "SDTMVAR": ["SRDTC"], "CDASHDOM": ["SR"]}, {"CDASHQUE": "What was the time of the skin response measurement?", "CDASHVAR": "[SRTESTCD]_SRTIM", "SDTMVAR": ["SRDTC"], "CDASHDOM": ["SR"]}, {"CDASHQUE": "What was the directionality of the anatomical location of the skin response measurement?", "CDASHVAR": "[SRTESTCD]_SRDIR", "SDTMVAR": ["SRDIR"], "CDASHDOM": ["SR"]}, {"CDASHQUE": "Who provided the skin response measurement information?", "CDASHVAR": "[SRTESTCD]_SREVAL", "SDTMVAR": ["SREVAL"], "CDASHDOM": ["SR"]}, {"CDASHQUE": "What was the identifier of the evaluator providing the skin response measurement information?", "CDASHVAR": "[SRTESTCD]_SREVALID", "SDTMVAR": ["SREVALID"], "CDASHDOM": ["SR"]}, {"CDASHQUE": "What was the result of the measurement?", "CDASHVAR": "[SRTESTCD]_SRORRES", "SDTMVAR": ["SRORRES", " SRTEST", " SRTESTCD"], "CDASHDOM": ["SR"]}, {"CDASHQUE": "How [did/do] the reported values compare within the [reference/normal/expected] range?", "CDASHVAR": "[SRTESTCD]_SRNRIND", "SDTMVAR": ["SRNRIND"], "CDASHDOM": ["SR"]}, {"CDASHQUE": "Was the result clinically significant?", "CDASHVAR": "[SRTESTCD]_SRCLSIG", "SDTMVAR": ["QVAL"], "CDASHDOM": ["SR"]}, {"CDASHQUE": "What was the result of the temperature measurement?", "CDASHVAR": "TEMP_VSORRES", "SDTMVAR": ["VSORRES", " VSTEST", " VSTESTCD"], "CDASHDOM": ["VS"]}, {"CDASHQUE": "What was the unit of the temperature measurement?", "CDASHVAR": "TEMP_VSORRESU", "SDTMVAR": ["VSORRESU"], "CDASHDOM": ["VS"]}, {"CDASHQUE": "Was the temperature result clinically significant?", "CDASHVAR": "TEMP_VSCLSIG", "SDTMVAR": ["QVAL"], "CDASHDOM": ["VS"]}, {"CDASHQUE": "What was the result of the respiratory rate measurement?", "CDASHVAR": "RESP_VSORRES", "SDTMVAR": ["VSORRES", " VSTEST", " VSTESTCD"], "CDASHDOM": ["VS"]}, {"CDASHQUE": "What was the unit of the respiratory rate measurement?", "CDASHVAR": "RESP_VSORRESU", "SDTMVAR": ["VSORRESU"], "CDASHDOM": ["VS"]}, {"CDASHQUE": "Was the respiratory rate result clinically significant?", "CDASHVAR": "RESP_VSCLSIG", "SDTMVAR": ["QVAL"], "CDASHDOM": ["VS"]}, {"CDASHQUE": "What was the result of the systolic blood pressure measurement?", "CDASHVAR": "SYSBP_VSORRES", "SDTMVAR": ["VSORRES", " VSTEST", " VSTESTCD"], "CDASHDOM": ["VS"]}, {"CDASHQUE": "What was the unit of the systolic blood pressure measurement?", "CDASHVAR": "SYSBP_VSORRESU", "SDTMVAR": ["VSORRESU"], "CDASHDOM": ["VS"]}, {"CDASHQUE": "Was the systolic blood pressure result clinically significant?", "CDASHVAR": "SYSBP_VSCLSIG", "SDTMVAR": ["QVAL"], "CDASHDOM": ["VS"]}, {"CDASHQUE": "What was the position of the subject during the systolic blood pressure measurement?", "CDASHVAR": "SYSBP_VSPOS", "SDTMVAR": ["VSPOS"], "CDASHDOM": ["VS"]}, {"CDASHQUE": "What was the anatomical location where the systolic blood pressure measurement was taken?", "CDASHVAR": "SYSBP_VSLOC", "SDTMVAR": ["VSLOC"], "CDASHDOM": ["VS"]}, {"CDASHQUE": "What was the side of the anatomical location of the systolic blood pressure measurement?", "CDASHVAR": "SYSBP_VSLAT", "SDTMVAR": ["VSLAT"], "CDASHDOM": ["VS"]}, {"CDASHQUE": "What was the result of the diastolic blood pressure measurement?", "CDASHVAR": "DIABP_VSORRES", "SDTMVAR": ["VSORRES", " VSTEST", " VSTESTCD"], "CDASHDOM": ["VS"]}, {"CDASHQUE": "What was the unit of the diastolic blood pressure measurement?", "CDASHVAR": "DIAPU_VSORRESU", "SDTMVAR": ["VSORRESU"], "CDASHDOM": ["VS"]}, {"CDASHQUE": "Was the diastolic blood pressure result clinically significant?", "CDASHVAR": "DIABP_VSCLSIG", "SDTMVAR": ["QVAL"], "CDASHDOM": ["VS"]}, {"CDASHQUE": "What was the position of the subject during the diastolic blood pressure measurement?", "CDASHVAR": "DIABP_VSPOS", "SDTMVAR": ["VSPOS"], "CDASHDOM": ["VS"]}, {"CDASHQUE": "What was the anatomical location where the diastolic blood pressure measurement was taken?", "CDASHVAR": "DIABP_VSLOC", "SDTMVAR": ["VSLOC"], "CDASHDOM": ["VS"]}, {"CDASHQUE": "What was the side of the anatomical location of the diastolic blood pressure measurement?", "CDASHVAR": "DIABP_VSLAT", "SDTMVAR": ["VSLAT"], "CDASHDOM": ["VS"]}, {"CDASHQUE": "What was the result of the heart rate measurement?", "CDASHVAR": "HR_VSORRES", "SDTMVAR": ["VSORRES", " VSTEST", " VSTESTCD"], "CDASHDOM": ["VS"]}, {"CDASHQUE": "What was the unit of the heart rate measurement?", "CDASHVAR": "HR_VSORRESU", "SDTMVAR": ["VSORRESU"], "CDASHDOM": ["VS"]}, {"CDASHQUE": "Was the heart rate result clinically significant?", "CDASHVAR": "HR_VSCLSIG", "SDTMVAR": ["QVAL"], "CDASHDOM": ["VS"]}, {"CDASHQUE": "What was the position of the subject during the heart rate measurement?", "CDASHVAR": "HR_VSPOS", "SDTMVAR": ["VSPOS"], "CDASHDOM": ["VS"]}, {"CDASHQUE": "What was the anatomical location where the heart rate measurement was taken?", "CDASHVAR": "HR_VSLOC", "SDTMVAR": ["VSLOC"], "CDASHDOM": ["VS"]}, {"CDASHQUE": "What was the side of the anatomical location of the heart rate measurement?", "CDASHVAR": "HR_VSLAT", "SDTMVAR": ["VSLAT"], "CDASHDOM": ["VS"]}, {"CDASHQUE": "Were [vital signs/[VSTEST] performed?", "CDASHVAR": "[VSTESTCD]_VSPERF", "SDTMVAR": ["VSSTAT"], "CDASHDOM": ["VS"]}, {"CDASHQUE": "What was the date of the measurement(s)?", "CDASHVAR": "[VSTESTCD]_VSDAT", "SDTMVAR": ["VSDTC"], "CDASHDOM": ["VS"]}, {"CDASHQUE": "What was the time of the measurement(s)?", "CDASHVAR": "[VSTESTCD]_VSTIM", "SDTMVAR": ["VSDTC"], "CDASHDOM": ["VS"]}, {"CDASHQUE": "What was the category of the vital signs?", "CDASHVAR": "VSCAT", "SDTMVAR": ["VSCAT"], "CDASHDOM": ["VS"]}, {"CDASHQUE": "What was the subcategory of the vital signs?", "CDASHVAR": "VSSCAT", "SDTMVAR": ["VSSCAT"], "CDASHDOM": ["VS"]}, {"CDASHQUE": "What is the vital sign group identifier ?", "CDASHVAR": "VSGRPID", "SDTMVAR": ["VSGRPID"], "CDASHDOM": ["VS"]}, {"CDASHQUE": "What is the planned time point for this vital signs measurement?", "CDASHVAR": "[VSTESTCD]_VSTPT", "SDTMVAR": ["VSTPT"], "CDASHDOM": ["VS"]}, {"CDASHQUE": "Indicate if the [VSTEST] measurement was not done", "CDASHVAR": "[VSTESTCD]_VSSTAT", "SDTMVAR": ["VSSTAT"], "CDASHDOM": ["VS"]}, {"CDASHQUE": "What was the result of the [VSTEST] measurement?", "CDASHVAR": "[VSTESTCD]_VSORRES", "SDTMVAR": ["VSORRES", " VSTEST", " VSTESTCD", ""], "CDASHDOM": ["VS"]}, {"CDASHQUE": "What was the unit of the [VSTEST] measurement?", "CDASHVAR": "[VSTESTCD]_VSORRESU", "SDTMVAR": ["VSORRESU"], "CDASHDOM": ["VS"]}, {"CDASHQUE": "Was the [VSTEST] result clinically significant?", "CDASHVAR": "[VSTESTCD]_VSCLSIG", "SDTMVAR": ["QVAL"], "CDASHDOM": ["VS"]}, {"CDASHQUE": "What was the position of the subject during the [VSTEST] measurement?", "CDASHVAR": "[VSTESTCD]_VSPOS", "SDTMVAR": ["VSPOS"], "CDASHDOM": ["VS"]}, {"CDASHQUE": "What was the anatomical location where the [VSTEST] measurement was taken?", "CDASHVAR": "[VSTESTCD]_VSLOC", "SDTMVAR": ["VSLOC"], "CDASHDOM": ["VS"]}, {"CDASHQUE": "What was the side of the anatomical location of the [VSTEST] measurement?", "CDASHVAR": "[VSTESTCD]_VSLAT", "SDTMVAR": ["VSLAT"], "CDASHDOM": ["VS"]}, {"CDASHQUE": "Were vital signs performed?", "CDASHVAR": "VSPERF", "SDTMVAR": ["VSSTAT"], "CDASHDOM": ["VS"]}, {"CDASHQUE": "What was the date of the vital signs measurement?", "CDASHVAR": "VSDAT", "SDTMVAR": ["VSDTC"], "CDASHDOM": ["VS"]}, {"CDASHQUE": "What was the time of the vital signs measurement?", "CDASHVAR": "VSTIM", "SDTMVAR": ["VSDTC"], "CDASHDOM": ["VS"]}, {"CDASHQUE": "What is the vital signs identifier?", "CDASHVAR": "VSSPID", "SDTMVAR": ["VSSPID"], "CDASHDOM": ["VS"]}, {"CDASHQUE": "What is the planned time point for this vital signs measurement?", "CDASHVAR": "VSTPT", "SDTMVAR": ["VSTPT"], "CDASHDOM": ["VS"]}, {"CDASHQUE": "What was the repetition number within the time point for this measurement?", "CDASHVAR": "VSREPNUM", "SDTMVAR": ["QVAL"], "CDASHDOM": ["VS"]}, {"CDASHQUE": "What is the vital sign test name?", "CDASHVAR": "VSTEST", "SDTMVAR": ["VSTEST", " VSTESTCD"], "CDASHDOM": ["VS"]}, {"CDASHQUE": "Indicate if the vital signs measurement was not done", "CDASHVAR": "VSSTAT", "SDTMVAR": ["VSSTAT"], "CDASHDOM": ["VS"]}, {"CDASHQUE": "What was the result of the measurement?", "CDASHVAR": "VSORRES", "SDTMVAR": ["VSORRES"], "CDASHDOM": ["VS"]}, {"CDASHQUE": "What was the unit of the measurement?", "CDASHVAR": "VSORRESU", "SDTMVAR": ["VSORRESU"], "CDASHDOM": ["VS"]}, {"CDASHQUE": "Was the result clinically significant?", "CDASHVAR": "VSCLSIG", "SDTMVAR": ["QVAL"], "CDASHDOM": ["VS"]}, {"CDASHQUE": "What was the anatomical location where the measurement was taken?", "CDASHVAR": "VSLOC", "SDTMVAR": ["VSLOC"], "CDASHDOM": ["VS"]}, {"CDASHQUE": "What was the position of the subject during the measurement?", "CDASHVAR": "VSPOS", "SDTMVAR": ["VSPOS"], "CDASHDOM": ["VS"]}, {"CDASHQUE": "What was the directionality of the anatomical location of the measurement?", "CDASHVAR": "VSDIR", "SDTMVAR": ["VSDIR"], "CDASHDOM": ["VS"]}, {"CDASHQUE": "What was the side of the anatomical location of the vital signs measurement?", "CDASHVAR": "VSLAT", "SDTMVAR": ["VSLAT"], "CDASHDOM": ["VS"]}, {"CDASHQUE": "[Sponsored-defined phrase]", "CDASHVAR": "FAOBJ", "SDTMVAR": ["FAOBJ"], "CDASHDOM": ["FA"]}, {"CDASHQUE": "Has the subject had any [Findings topic(s)] (after/before [study specific time frame])?; [Was/Were] (there) any [Findings topic(s)] (reported) (after/before [study specific time frame])?; Were all eligibility criteria met?", "CDASHVAR": "FAYN", "SDTMVAR": [], "CDASHDOM": ["FA"]}, {"CDASHQUE": "[Were any/Was the] [FATEST/topic] ([measurement(s)/test(s)/examination(s)/specimen(s)/sample(s))] [performed/collected]?", "CDASHVAR": "FAPERF", "SDTMVAR": ["FASTAT"], "CDASHDOM": ["FA"]}, {"CDASHQUE": "What [is/was] the name (of the [measurement/test/examination])?", "CDASHVAR": "FATEST", "SDTMVAR": ["FATEST", "FATESTCD"], "CDASHDOM": ["FA"]}, {"CDASHQUE": "What [is/was] the [measurement/test/examination] detail name?", "CDASHVAR": "FATSTDTL", "SDTMVAR": ["FATSTDTL"], "CDASHDOM": ["FA"]}, {"CDASHQUE": "What [is/was] the [type/category/name] (of the [measurement/test/examination/specimen/sample])?", "CDASHVAR": "FACAT", "SDTMVAR": ["FACAT"], "CDASHDOM": ["FA"]}, {"CDASHQUE": "What [is/was] the [type/subcategory/name] (of the [measurement/test/examination/specimen/sample])?", "CDASHVAR": "FASCAT", "SDTMVAR": ["FASCAT"], "CDASHDOM": ["FA"]}, {"CDASHQUE": "In what position was the subject during the [measurement/ test/examination/specimen collection/sample collection]? ; What was the position of the subject (during the [measurement/test/examination/specimen collection/sample collection])?", "CDASHVAR": "FAPOS", "SDTMVAR": ["FAPOS"], "CDASHDOM": ["FA"]}, {"CDASHQUE": "What [is/was] the [result/amount/(subject's) characteristic] (of the [measurement/test/examination/question/assessment])?", "CDASHVAR": "FAORRES", "SDTMVAR": ["FAORRES"], "CDASHDOM": ["FA"]}, {"CDASHQUE": "What [is/was] the unit (of the [measurement/test/examination])?", "CDASHVAR": "FAORRESU", "SDTMVAR": ["FAORRESU"], "CDASHDOM": ["FA"]}, {"CDASHQUE": "What [is/was] the lower limit of the reference range (for the [measurement/test/examination])?", "CDASHVAR": "FAORNRLO", "SDTMVAR": ["FAORNRLO"], "CDASHDOM": ["FA"]}, {"CDASHQUE": "What [is/was] the upper limit of the reference range (for the [measurement/test/examination])?", "CDASHVAR": "FAORNRHI", "SDTMVAR": ["FAORNRHI"], "CDASHDOM": ["FA"]}, {"CDASHQUE": "How [did/do] the reported values compare within the [reference/normal/expected] range?", "CDASHVAR": "FANRIND", "SDTMVAR": ["FANRIND"], "CDASHDOM": ["FA"]}, {"CDASHQUE": "Was the [--TEST ] not [completed/answered/done/assessed/evaluated ]?; Indicate if the( [--TEST] was) not [answered/assessed/done/evaluated/performed].", "CDASHVAR": "FASTAT", "SDTMVAR": ["FASTAT"], "CDASHDOM": ["FA"]}, {"CDASHQUE": "Was the [is/was] the reason that the [Findings topic/data/information/sponsor-defined phrase] was not [collected/answered/done/assessed/evaluated]?", "CDASHVAR": "FAREASND", "SDTMVAR": ["FAREASND"], "CDASHDOM": ["FA"]}, {"CDASHQUE": "What [is/was] the specimen type?", "CDASHVAR": "FASPEC", "SDTMVAR": ["FASPEC"], "CDASHDOM": ["FA"]}, {"CDASHQUE": "What [is/was] the condition of the specimen?", "CDASHVAR": "FASPCCND", "SDTMVAR": ["FASPCCND"], "CDASHDOM": ["FA"]}, {"CDASHQUE": "What [is/was] the anatomical location (of the [measurement/test/examination]) or What [is/was] the anatomical location where the [measurement/specimen] was taken/collected )?", "CDASHVAR": "FALOC", "SDTMVAR": ["FALOC"], "CDASHDOM": ["FA"]}, {"CDASHQUE": "What [ is/ was] the side (of the anatomical location of the [measurement/test/examination]) ?", "CDASHVAR": "FALAT", "SDTMVAR": ["FALAT"], "CDASHDOM": ["FA"]}, {"CDASHQUE": "What [is/was] the directionality (of the anatomical location of the [measurement/test/examination]) ?", "CDASHVAR": "FADIR", "SDTMVAR": ["FADIR"], "CDASHDOM": ["FA"]}, {"CDASHQUE": "What [is/was] the portion or totality (of the anatomical location of the [measurement/test/examination]) ?", "CDASHVAR": "FAPORTOT", "SDTMVAR": ["FAPORTOT"], "CDASHDOM": ["FA"]}, {"CDASHQUE": "What was the method (used for the [measurement/test/examination])?", "CDASHVAR": "FAMETHOD", "SDTMVAR": ["FAMETHOD"], "CDASHDOM": ["FA"]}, {"CDASHQUE": "What [is/was] the lead (used to measure [measurement/test/examination])?", "CDASHVAR": "FALEAD", "SDTMVAR": ["FALEAD"], "CDASHDOM": ["FA"]}, {"CDASHQUE": "[Is/Was] the subject fasting (prior to the [test being performed/sample being collected])?", "CDASHVAR": "FAFAST", "SDTMVAR": ["FAFAST"], "CDASHDOM": ["FA"]}, {"CDASHQUE": "Who provided the (sponsor-defined phrase) information?; Who was the evaluator?", "CDASHVAR": "FAEVAL", "SDTMVAR": ["FAEVAL"], "CDASHDOM": ["FA"]}, {"CDASHQUE": "What [is/was] the identifier of the [evaluator name/reporter name] (providing the-sponsor-defined phrase- information)?", "CDASHVAR": "FAEVALID", "SDTMVAR": ["FAEVALID"], "CDASHDOM": ["FA"]}, {"CDASHQUE": "[Is/Was] the ([measurement/test/examination]) result clinically significant?", "CDASHVAR": "FACLSIG", "SDTMVAR": ["QVAL"], "CDASHDOM": ["FA"]}]}