{"SANOFICDASH": [{"SDTMDOM": ["AE"], "SDTMVAR": ["AEACN", "AEACNC"], "CDASHVAR": "AEACNC"}, {"SDTMDOM": ["AE"], "SDTMVAR": ["AEACN2", "AEACNC2"], "CDASHVAR": "AEACNC2"}, {"SDTMDOM": ["AE"], "SDTMVAR": ["AEACN2", "AEACNC2"], "CDASHVAR": "AEACNC2_ACN_01"}, {"SDTMDOM": ["AE", "APAE"], "SDTMVAR": ["AEACN2", "AEACNC2"], "CDASHVAR": "AEACNC2_ACN_03"}, {"SDTMDOM": ["AE"], "SDTMVAR": ["AEACN3", "AEACNC3"], "CDASHVAR": "AEACNC3"}, {"SDTMDOM": ["AE"], "SDTMVAR": ["AEACN3", "AEACNC3"], "CDASHVAR": "AEACNC3_ACN_01"}, {"SDTMDOM": ["AE", "APAE"], "SDTMVAR": ["AEACN3", "AEACNC3"], "CDASHVAR": "AEACNC3_ACN_03"}, {"SDTMDOM": ["AE"], "SDTMVAR": ["AEACN4", "AEACNC4"], "CDASHVAR": "AEACNC4"}, {"SDTMDOM": ["AE"], "SDTMVAR": ["AEACN4", "AEACNC4"], "CDASHVAR": "AEACNC4_ACN_01"}, {"SDTMDOM": ["AE", "APAE"], "SDTMVAR": ["AEACN4", "AEACNC4"], "CDASHVAR": "AEACNC4_ACN_03"}, {"SDTMDOM": ["AE"], "SDTMVAR": ["AEACN", "AEACNC"], "CDASHVAR": "AEACNC_ACN_01"}, {"SDTMDOM": ["AE", "APAE"], "SDTMVAR": ["AEACN", "AEACNC"], "CDASHVAR": "AEACNC_ACN_03"}, {"SDTMDOM": ["AE", "APAE"], "SDTMVAR": ["AECAT"], "CDASHVAR": "AECAT"}, {"SDTMDOM": ["AE"], "SDTMVAR": ["AECONTRT"], "CDASHVAR": "AECONTRT"}, {"SDTMDOM": ["AE"], "SDTMVAR": ["AECYCNAM"], "CDASHVAR": "AECYCNAM"}, {"SDTMDOM": ["AE"], "SDTMVAR": ["AECYCVID"], "CDASHVAR": "AECYCVID"}, {"SDTMDOM": ["AE"], "SDTMVAR": ["AEDLT"], "CDASHVAR": "AEDLT"}, {"SDTMDOM": ["AE", "APAE"], "SDTMVAR": ["AEENDTC"], "CDASHVAR": "AEENDAT"}, {"SDTMDOM": ["AE", "APAE"], "SDTMVAR": ["AEENDTC"], "CDASHVAR": "AEENTIM"}, {"SDTMDOM": ["AE", "APAE"], "SDTMVAR": ["AEISPID"], "CDASHVAR": "AEISPID"}, {"SDTMDOM": ["AE"], "SDTMVAR": ["AEOUT"], "CDASHVAR": "AEOUT"}, {"SDTMDOM": ["AE", "APAE"], "SDTMVAR": ["AEOUTPRG"], "CDASHVAR": "AEOUTPRG"}, {"SDTMDOM": ["AE"], "SDTMVAR": ["AEOVIMP"], "CDASHVAR": "AEOVIMP"}, {"SDTMDOM": ["AE"], "SDTMVAR": ["AEOVIMP2"], "CDASHVAR": "AEOVIMP2"}, {"SDTMDOM": ["AE"], "SDTMVAR": ["AEOVIMP3"], "CDASHVAR": "AEOVIMP3"}, {"SDTMDOM": ["AE"], "SDTMVAR": ["AEOVIMP4"], "CDASHVAR": "AEOVIMP4"}, {"SDTMDOM": ["AE"], "SDTMVAR": ["AEOVNCM"], "CDASHVAR": "AEOVNCM"}, {"SDTMDOM": ["AE"], "SDTMVAR": ["AEOVNCMS"], "CDASHVAR": "AEOVNCMS"}, {"SDTMDOM": ["AE"], "SDTMVAR": ["AEOVNIMP"], "CDASHVAR": "AEOVNIMP"}, {"SDTMDOM": ["AE"], "SDTMVAR": ["AEOVOTCM"], "CDASHVAR": "AEOVOTCM"}, {"SDTMDOM": ["AE"], "SDTMVAR": ["AEOVSYMP"], "CDASHVAR": "AEOVSYMP"}, {"SDTMDOM": ["AE", "APAE"], "SDTMVAR": ["AEPRAEYN"], "CDASHVAR": "AEPRAEYN"}, {"SDTMDOM": ["AE", "APAE"], "SDTMVAR": ["AEREL", "AEREL2", "AEREL3", "AEREL4", "AERELNST", "AERELPR"], "CDASHVAR": "AEREL_01"}, {"SDTMDOM": ["AE"], "SDTMVAR": ["AESCONG"], "CDASHVAR": "AESCONG"}, {"SDTMDOM": ["AE"], "SDTMVAR": ["AESDISAB"], "CDASHVAR": "AESDISAB"}, {"SDTMDOM": ["AE"], "SDTMVAR": ["AESDTH"], "CDASHVAR": "AESDTH"}, {"SDTMDOM": ["AE"], "SDTMVAR": ["AESEQUCM"], "CDASHVAR": "AESEQUCM"}, {"SDTMDOM": ["AE"], "SDTMVAR": ["AESER"], "CDASHVAR": "AESER"}, {"SDTMDOM": ["AE"], "SDTMVAR": ["AESERDTC"], "CDASHVAR": "AESERDAT"}, {"SDTMDOM": ["AE"], "SDTMVAR": ["AESHOSP"], "CDASHVAR": "AESHOSP"}, {"SDTMDOM": ["AE"], "SDTMVAR": ["AESIIN"], "CDASHVAR": "AESIIN"}, {"SDTMDOM": ["AE"], "SDTMVAR": ["AESLIFE"], "CDASHVAR": "AESLIFE"}, {"SDTMDOM": ["AE"], "SDTMVAR": ["AESMIE"], "CDASHVAR": "AESMIE"}, {"SDTMDOM": ["AE", "APAE"], "SDTMVAR": ["AEREFID"], "CDASHVAR": "AESPID"}, {"SDTMDOM": ["AE"], "SDTMVAR": ["AESTABLE"], "CDASHVAR": "AESTABLE"}, {"SDTMDOM": ["AE", "APAE"], "SDTMVAR": ["AESTDTC"], "CDASHVAR": "AESTDAT"}, {"SDTMDOM": ["AE"], "SDTMVAR": ["AESTDTC"], "CDASHVAR": "AESTTIM"}, {"SDTMDOM": ["AE", "APAE"], "SDTMVAR": ["AETERM"], "CDASHVAR": "AETERM"}, {"SDTMDOM": ["AE"], "SDTMVAR": ["AETOXGR"], "CDASHVAR": "AETOXGR_01"}, {"SDTMDOM": ["DM"], "SDTMVAR": ["AGE"], "CDASHVAR": "AGE"}, {"SDTMDOM": ["DM"], "SDTMVAR": ["AGEU"], "CDASHVAR": "AGEU"}, {"SDTMDOM": ["DM"], "SDTMVAR": ["BRTHDTC"], "CDASHVAR": "BRTHDAT"}, {"SDTMDOM": ["MH", "MI"], "SDTMVAR": ["MHCAT", "MICAT"], "CDASHVAR": "CGCAT"}, {"SDTMDOM": ["MI"], "SDTMVAR": ["MIORRES"], "CDASHVAR": "CGDGSP"}, {"SDTMDOM": ["MI"], "SDTMVAR": ["MIORRES", "MISTRESC"], "CDASHVAR": "CGDGST"}, {"SDTMDOM": ["MH"], "SDTMVAR": ["MHLOC"], "CDASHVAR": "CGLOC"}, {"SDTMDOM": ["MH"], "SDTMVAR": ["MHLOCOTH"], "CDASHVAR": "CGLOCSP"}, {"SDTMDOM": ["MI"], "SDTMVAR": ["MIORRES", "MISTRESC"], "CDASHVAR": "CGM"}, {"SDTMDOM": ["MI"], "SDTMVAR": ["MIORRES", "MISTRESC"], "CDASHVAR": "CGN"}, {"SDTMDOM": ["MI"], "SDTMVAR": ["MIORRES", "MISTRESC"], "CDASHVAR": "CGPAT"}, {"SDTMDOM": ["MI"], "SDTMVAR": ["MIORRES"], "CDASHVAR": "CGPATSP"}, {"SDTMDOM": ["MI"], "SDTMVAR": ["MIORRES", "MISTRESC"], "CDASHVAR": "CGRSK"}, {"SDTMDOM": ["MI"], "SDTMVAR": ["MIORRES", "MISTRESC", "MISTRESN"], "CDASHVAR": "CGSC"}, {"SDTMDOM": ["MH", "MI"], "SDTMVAR": ["MHSTDTC", "MIDTC"], "CDASHVAR": "CGSTDAT"}, {"SDTMDOM": ["MI"], "SDTMVAR": ["MIORRES", "MISTRESC"], "CDASHVAR": "CGSTG"}, {"SDTMDOM": ["MI"], "SDTMVAR": ["MIORRES", "MISTRESC"], "CDASHVAR": "CGT"}, {"SDTMDOM": ["MH"], "SDTMVAR": ["MHPRESP", "MHTERM"], "CDASHVAR": "CGTERM_NEOPLASM"}, {"SDTMDOM": ["MH"], "SDTMVAR": ["MHTERM"], "CDASHVAR": "CGTRMSP"}, {"SDTMDOM": ["CM"], "SDTMVAR": ["CMBR"], "CDASHVAR": "CMBR"}, {"SDTMDOM": ["CM"], "SDTMVAR": ["CMCAT"], "CDASHVAR": "CMCAT"}, {"SDTMDOM": ["CM"], "SDTMVAR": ["CMCAT"], "CDASHVAR": "CMCAT_ONC"}, {"SDTMDOM": ["CM"], "SDTMVAR": ["CMDOSE"], "CDASHVAR": "CMDOSE"}, {"SDTMDOM": ["CM"], "SDTMVAR": ["CMDOSTOT"], "CDASHVAR": "CMDOSTOT"}, {"SDTMDOM": ["CM"], "SDTMVAR": ["CMDOSU"], "CDASHVAR": "CMDOSU"}, {"SDTMDOM": ["CM"], "SDTMVAR": ["CMRSDISC"], "CDASHVAR": "CMDSREAS_07"}, {"SDTMDOM": ["CM"], "SDTMVAR": ["CMDSROTH"], "CDASHVAR": "CMDSRSP"}, {"SDTMDOM": ["CM"], "SDTMVAR": ["CMENDTC"], "CDASHVAR": "CMENDAT"}, {"SDTMDOM": ["CM"], "SDTMVAR": ["CMGRPID"], "CDASHVAR": "CMGRPID"}, {"SDTMDOM": ["CM"], "SDTMVAR": ["CMOCCUR", "CMSTAT"], "CDASHVAR": "CMOCCUR"}, {"SDTMDOM": ["CM"], "SDTMVAR": ["CMENRTPT"], "CDASHVAR": "CMONGO"}, {"SDTMDOM": ["CM"], "SDTMVAR": ["CMPREP"], "CDASHVAR": "CMPREP"}, {"SDTMDOM": ["CM"], "SDTMVAR": ["CMPRESP"], "CDASHVAR": "CMPRESP"}, {"SDTMDOM": ["CM"], "SDTMVAR": ["CMRESTRT"], "CDASHVAR": "CMRESTRT"}, {"SDTMDOM": ["CM"], "SDTMVAR": ["CMRESTRT"], "CDASHVAR": "CMRESTRT_TRTRSN_02"}, {"SDTMDOM": ["CM"], "SDTMVAR": ["CMROUTE"], "CDASHVAR": "CMROUTE"}, {"SDTMDOM": ["CM"], "SDTMVAR": ["CMROUTE"], "CDASHVAR": "CMROUTE_01"}, {"SDTMDOM": ["CM"], "SDTMVAR": ["CMRPDTC"], "CDASHVAR": "CMRPDAT"}, {"SDTMDOM": ["CM"], "SDTMVAR": ["CMSCAT"], "CDASHVAR": "CMSCAT"}, {"SDTMDOM": ["CM"], "SDTMVAR": ["CMSCAT"], "CDASHVAR": "CMSCAT_ONC"}, {"SDTMDOM": ["CM"], "SDTMVAR": ["CMSPID"], "CDASHVAR": "CMSPID"}, {"SDTMDOM": ["CM"], "SDTMVAR": ["CMSSCAT"], "CDASHVAR": "CMSSCAT"}, {"SDTMDOM": ["CM"], "SDTMVAR": ["CMSTDTC"], "CDASHVAR": "CMSTDAT"}, {"SDTMDOM": ["CM"], "SDTMVAR": ["CMTRT"], "CDASHVAR": "CMTRT"}, {"SDTMDOM": ["DD", "DM", "DS"], "SDTMVAR": ["DDDTC", "DSSTDTC", "DTHDTC"], "CDASHVAR": "DDDAT"}, {"SDTMDOM": ["DD", "DS"], "SDTMVAR": ["DDORRES", "DDSTRESC", "DSTERM"], "CDASHVAR": "DDORRES"}, {"SDTMDOM": ["DD", "DS"], "SDTMVAR": ["DDORRES", "DSTERM"], "CDASHVAR": "DDORRESP"}, {"SDTMDOM": ["DS"], "SDTMVAR": ["DSAENO"], "CDASHVAR": "DSAENO"}, {"SDTMDOM": ["DS"], "SDTMVAR": ["DSBKAEN2"], "CDASHVAR": "DSBKAEN2"}, {"SDTMDOM": ["DS"], "SDTMVAR": ["DSBKAEN3"], "CDASHVAR": "DSBKAEN3"}, {"SDTMDOM": ["DS"], "SDTMVAR": ["DSBKAENO"], "CDASHVAR": "DSBKAENO"}, {"SDTMDOM": ["DS"], "SDTMVAR": ["DSBKMETH"], "CDASHVAR": "DSBKMETH"}, {"SDTMDOM": ["DS"], "SDTMVAR": ["DSBKTRT"], "CDASHVAR": "DSBKTRT"}, {"SDTMDOM": ["DS"], "SDTMVAR": ["DSBKTRT2"], "CDASHVAR": "DSBKTRT2"}, {"SDTMDOM": ["DS"], "SDTMVAR": ["DSBKTRT3"], "CDASHVAR": "DSBKTRT3"}, {"SDTMDOM": ["DS"], "SDTMVAR": ["DSBKWHO"], "CDASHVAR": "DSBKWHO"}, {"SDTMDOM": ["DS"], "SDTMVAR": ["DSCAT"], "CDASHVAR": "DSCAT"}, {"SDTMDOM": ["DS"], "SDTMVAR": ["DSCONT", "DSDECOD"], "CDASHVAR": "DSCONT"}, {"SDTMDOM": ["DS"], "SDTMVAR": ["DSTERM"], "CDASHVAR": "DSDECOD_DSCBBRKR"}, {"SDTMDOM": ["DS"], "SDTMVAR": ["DSDECOD"], "CDASHVAR": "DSDECOD_INFCST"}, {"SDTMDOM": ["DS"], "SDTMVAR": ["DSDECOD", "DSTERM"], "CDASHVAR": "DSDECOD_NCOMPLT_03"}, {"SDTMDOM": ["DS"], "SDTMVAR": ["DSDECOD", "DSTERM"], "CDASHVAR": "DSDECOD_NCOMPLT_END03"}, {"SDTMDOM": ["DS"], "SDTMVAR": ["DSDECOD", "DSTERM"], "CDASHVAR": "DSDECOD_NCOMPLT_TS04"}, {"SDTMDOM": ["DS"], "SDTMVAR": ["DSNEXT"], "CDASHVAR": "DSNEXT"}, {"SDTMDOM": ["DM"], "SDTMVAR": ["DSPRSTUD"], "CDASHVAR": "DSPRSTUD"}, {"SDTMDOM": ["DM"], "SDTMVAR": ["DSPRSUBJ"], "CDASHVAR": "DSPRSUBJ"}, {"SDTMDOM": ["DS"], "SDTMVAR": ["DSSCAT"], "CDASHVAR": "DSSCAT"}, {"SDTMDOM": ["DM", "DS", "IVRS"], "SDTMVAR": ["DSDTC", "DSSTADTC", "DSSTDTC", "RFICDTC"], "CDASHVAR": "DSSTDAT"}, {"SDTMDOM": ["DS", "IVRS"], "SDTMVAR": ["DSSTADTC", "DSSTDTC"], "CDASHVAR": "DSSTTIM"}, {"SDTMDOM": ["DS"], "SDTMVAR": ["DSTERM"], "CDASHVAR": "DSSUBREA"}, {"SDTMDOM": ["DS"], "SDTMVAR": ["DSTERM"], "CDASHVAR": "DSTERM"}, {"SDTMDOM": ["EG", "Pending"], "SDTMVAR": ["EGAENO"], "CDASHVAR": "EGAENO"}, {"SDTMDOM": ["EG", "Pending"], "SDTMVAR": ["EGCLSIG"], "CDASHVAR": "EGCLSIG"}, {"SDTMDOM": ["EG"], "SDTMVAR": ["EGDTC"], "CDASHVAR": "EGDAT"}, {"SDTMDOM": ["EG"], "SDTMVAR": ["EGORRES", "EGSTRESC"], "CDASHVAR": "EGFIND"}, {"SDTMDOM": ["EG"], "SDTMVAR": ["EGORRES", "EGSTRESC"], "CDASHVAR": "EGINTP"}, {"SDTMDOM": ["EG", "Pending"], "SDTMVAR": ["EGMETHOD"], "CDASHVAR": "EGMETHOD"}, {"SDTMDOM": ["EG"], "SDTMVAR": ["EGORRES", "EGSTRESC", "EGSTRESN"], "CDASHVAR": "EGORRES"}, {"SDTMDOM": ["EG"], "SDTMVAR": ["EGORRESU", "EGSTRESU"], "CDASHVAR": "EGORRESU"}, {"SDTMDOM": ["EG"], "SDTMVAR": ["EGORRESU", "EGSTRESU"], "CDASHVAR": "EGORUSP"}, {"SDTMDOM": ["EG"], "SDTMVAR": ["EGPOS"], "CDASHVAR": "EGPOS"}, {"SDTMDOM": ["EG", "Pending"], "SDTMVAR": ["EGSPID"], "CDASHVAR": "EGSPID"}, {"SDTMDOM": ["EG"], "SDTMVAR": ["EGSTAT"], "CDASHVAR": "EGSTAT"}, {"SDTMDOM": ["EG"], "SDTMVAR": ["EGTEST"], "CDASHVAR": "EGTEST"}, {"SDTMDOM": ["EG"], "SDTMVAR": ["EGTESTCD"], "CDASHVAR": "EGTESTCD"}, {"SDTMDOM": ["EG"], "SDTMVAR": ["EGDTC"], "CDASHVAR": "EGTIM"}, {"SDTMDOM": ["EG", "Pending"], "SDTMVAR": ["EGTPT"], "CDASHVAR": "EGTPT"}, {"SDTMDOM": ["EG", "Pending"], "SDTMVAR": ["EGTPTNUM"], "CDASHVAR": "EGTPTNUM"}, {"SDTMDOM": ["DS"], "SDTMVAR": ["EPOCH"], "CDASHVAR": "EPOCH"}, {"SDTMDOM": ["DM"], "SDTMVAR": ["ETHNIC"], "CDASHVAR": "ETHNIC"}, {"SDTMDOM": ["EC", "EX"], "SDTMVAR": ["ECCAT", "EXCAT"], "CDASHVAR": "EXCAT"}, {"SDTMDOM": ["EC", "EX"], "SDTMVAR": ["ECDOSADJ", "EXDOSADJ"], "CDASHVAR": "EXDOSADJ"}, {"SDTMDOM": ["EC", "EX"], "SDTMVAR": ["ECDOSE", "ECDOSFRQ", "EXDOSE", "EXDOSFRQ"], "CDASHVAR": "EXDOSTOT"}, {"SDTMDOM": ["EC", "EX"], "SDTMVAR": ["ECDOSU", "EXDOSU"], "CDASHVAR": "EXDOSU"}, {"SDTMDOM": ["EC"], "SDTMVAR": ["ECOCCUR", "ECPRESP"], "CDASHVAR": "EXDSNTTK"}, {"SDTMDOM": ["EC", "EX"], "SDTMVAR": ["ECDOSE", "ECDOSTXT", "EXDOSE", "EXDOSTXT"], "CDASHVAR": "EXDSTXT"}, {"SDTMDOM": ["EC", "EX"], "SDTMVAR": ["ECENDTC", "ECSTDTC", "EXENDTC", "EXSTDTC"], "CDASHVAR": "EXENDAT"}, {"SDTMDOM": ["EC", "EX"], "SDTMVAR": ["ECENDAY", "EXENDAY"], "CDASHVAR": "EXENDAY"}, {"SDTMDOM": ["EC", "EX"], "SDTMVAR": ["ECENDTC", "EXENDTC"], "CDASHVAR": "EXENTIM"}, {"SDTMDOM": ["EC", "EX"], "SDTMVAR": ["ECENTPT", "EXENTPT"], "CDASHVAR": "EXENTPT"}, {"SDTMDOM": ["EC", "EX"], "SDTMVAR": ["ECETPTNM", "EXETPTNM"], "CDASHVAR": "EXETPTNM"}, {"SDTMDOM": ["EC"], "SDTMVAR": ["ECDOSE"], "CDASHVAR": "EXPDOSE"}, {"SDTMDOM": ["EC"], "SDTMVAR": ["ECDOSEU"], "CDASHVAR": "EXPDOSEU"}, {"SDTMDOM": ["EC"], "SDTMVAR": ["ECDOSE", "ECDOSFRQ"], "CDASHVAR": "EXPDOST"}, {"SDTMDOM": ["EC", "EX"], "SDTMVAR": ["ECPERIOD", "EXPERIOD"], "CDASHVAR": "EXPERIOD"}, {"SDTMDOM": ["EC", "EX"], "SDTMVAR": ["ECREFID", "EXREFID"], "CDASHVAR": "EXREFID"}, {"SDTMDOM": ["EC", "EX"], "SDTMVAR": ["ECREFID2", "EXREFID2"], "CDASHVAR": "EXRFID2"}, {"SDTMDOM": ["EC", "EX"], "SDTMVAR": ["ECREFID3", "EXREFID3"], "CDASHVAR": "EXRFID3"}, {"SDTMDOM": ["EC", "EX"], "SDTMVAR": ["ECREFID4", "EXREFID4"], "CDASHVAR": "EXRFID4"}, {"SDTMDOM": ["EC", "EX"], "SDTMVAR": ["ECREFID5", "EXREFID5"], "CDASHVAR": "EXRFID5"}, {"SDTMDOM": ["EC", "EX"], "SDTMVAR": ["ECROUTE", "EXROUTE"], "CDASHVAR": "EXROUTE"}, {"SDTMDOM": ["EC", "EX"], "SDTMVAR": ["ECSTDTC", "EXSTDTC"], "CDASHVAR": "EXSTDAT"}, {"SDTMDOM": ["EC", "EX"], "SDTMVAR": ["ECSTDAY", "EXSTDAY"], "CDASHVAR": "EXSTDAY"}, {"SDTMDOM": ["EC", "EX"], "SDTMVAR": ["ECSTDTC", "EXSTDTC"], "CDASHVAR": "EXSTTIM"}, {"SDTMDOM": ["EC", "EX"], "SDTMVAR": ["ECTPT", "EXTPT"], "CDASHVAR": "EXTPT"}, {"SDTMDOM": ["EC", "EX"], "SDTMVAR": ["ECTPTNUM", "EXTPTNUM"], "CDASHVAR": "EXTPTNUM"}, {"SDTMDOM": ["EC", "EX"], "SDTMVAR": ["ECTRT", "EXTRT"], "CDASHVAR": "EXTRT"}, {"SDTMDOM": ["FAAE"], "SDTMVAR": ["FAAENO"], "CDASHVAR": "FAAENO"}, {"SDTMDOM": ["FACE"], "SDTMVAR": ["FACAT"], "CDASHVAR": "FACAT"}, {"SDTMDOM": ["FACE"], "SDTMVAR": ["FADTC"], "CDASHVAR": "FADAT"}, {"SDTMDOM": ["FAAE", "FACE"], "SDTMVAR": ["FAOBJ"], "CDASHVAR": "FAOBJ"}, {"SDTMDOM": ["FAAE", "FACE"], "SDTMVAR": ["FAORRES", "FASTRESC"], "CDASHVAR": "FAORRES"}, {"SDTMDOM": ["FACE"], "SDTMVAR": ["FAREFID", "FASPID"], "CDASHVAR": "FASPID"}, {"SDTMDOM": ["IE"], "SDTMVAR": ["IECAT", "IEORRES", "IESTRESC"], "CDASHVAR": "IECAT"}, {"SDTMDOM": ["IE"], "SDTMVAR": ["IETESTCD"], "CDASHVAR": "IETESTCD"}, {"SDTMDOM": ["IE"], "SDTMVAR": ["IEVERS"], "CDASHVAR": "IEVERS"}, {"SDTMDOM": ["LB", "Pending"], "SDTMVAR": ["LBCAT"], "CDASHVAR": "LBCAT"}, {"SDTMDOM": ["Pending"], "SDTMVAR": ["LBCOND"], "CDASHVAR": "LBCOND"}, {"SDTMDOM": ["Pending"], "SDTMVAR": ["LBDTC"], "CDASHVAR": "LBDAT"}, {"SDTMDOM": ["Pending"], "SDTMVAR": ["LBMETHOD"], "CDASHVAR": "LBMETHOD"}, {"SDTMDOM": ["LB", "Pending"], "SDTMVAR": ["LBORRES"], "CDASHVAR": "LBORRES"}, {"SDTMDOM": ["LB", "Pending"], "SDTMVAR": ["LBORRESU"], "CDASHVAR": "LBORRESU"}, {"SDTMDOM": ["Pending"], "SDTMVAR": ["LBORRES"], "CDASHVAR": "LBORRES_LBQUAL"}, {"SDTMDOM": ["Pending"], "SDTMVAR": ["LBRANTYP"], "CDASHVAR": "LBRANTYP"}, {"SDTMDOM": ["LB", "Pending"], "SDTMVAR": ["LBSCAT"], "CDASHVAR": "LBSCAT"}, {"SDTMDOM": ["Pending"], "SDTMVAR": ["LBSTNRHI"], "CDASHVAR": "LBSINRHI"}, {"SDTMDOM": ["Pending"], "SDTMVAR": ["LBSTNRLO"], "CDASHVAR": "LBSINRLO"}, {"SDTMDOM": ["Pending"], "SDTMVAR": ["LBSONRHI"], "CDASHVAR": "LBSONRHI"}, {"SDTMDOM": ["Pending"], "SDTMVAR": ["LBSONRLO"], "CDASHVAR": "LBSONRLO"}, {"SDTMDOM": ["LB", "Pending"], "SDTMVAR": ["LBSPEC"], "CDASHVAR": "LBSPEC"}, {"SDTMDOM": ["Pending"], "SDTMVAR": ["LBSTAT"], "CDASHVAR": "LBSTAT"}, {"SDTMDOM": ["LB", "Pending"], "SDTMVAR": ["LBSTRESC"], "CDASHVAR": "LBSTRESC"}, {"SDTMDOM": ["LB", "Pending"], "SDTMVAR": ["LBSTRESN"], "CDASHVAR": "LBSTRESN"}, {"SDTMDOM": ["LB", "Pending"], "SDTMVAR": ["LBSTRESU"], "CDASHVAR": "LBSTRESU"}, {"SDTMDOM": ["LB", "Pending"], "SDTMVAR": ["LBTEST"], "CDASHVAR": "LBTEST"}, {"SDTMDOM": ["LB"], "SDTMVAR": ["LBTESTCD"], "CDASHVAR": "LBTESTCD"}, {"SDTMDOM": ["Pending"], "SDTMVAR": ["LBDTC"], "CDASHVAR": "LBTIM"}, {"SDTMDOM": ["LB", "Pending"], "SDTMVAR": ["LBTPT"], "CDASHVAR": "LBTPT"}, {"SDTMDOM": ["Pending"], "SDTMVAR": ["LBTPTNUM"], "CDASHVAR": "LBTPTNUM"}, {"SDTMDOM": ["MH"], "SDTMVAR": ["MHCAT"], "CDASHVAR": "MHCAT"}, {"SDTMDOM": ["MH"], "SDTMVAR": ["MHENDTC"], "CDASHVAR": "MHENDAT"}, {"SDTMDOM": ["MH"], "SDTMVAR": ["MHOCCUR"], "CDASHVAR": "MHOCCUR"}, {"SDTMDOM": ["MH"], "SDTMVAR": ["MHENRTPT"], "CDASHVAR": "MHONGO"}, {"SDTMDOM": ["MH"], "SDTMVAR": ["MHPRESP"], "CDASHVAR": "MHPRESP"}, {"SDTMDOM": ["MH"], "SDTMVAR": ["MHSPID"], "CDASHVAR": "MHSPID"}, {"SDTMDOM": ["MH"], "SDTMVAR": ["MHSTDTC"], "CDASHVAR": "MHSTDAT"}, {"SDTMDOM": ["MH"], "SDTMVAR": ["MHTERM"], "CDASHVAR": "MHTERM"}, {"SDTMDOM": ["Out of Scope", "PC"], "SDTMVAR": ["PCCAT"], "CDASHVAR": "PCCAT"}, {"SDTMDOM": ["Out of Scope", "PC"], "SDTMVAR": ["PCPERIOD"], "CDASHVAR": "PCPERIOD"}, {"SDTMDOM": ["Out of Scope", "PC"], "SDTMVAR": ["PCREFID"], "CDASHVAR": "PCREFID"}, {"SDTMDOM": ["Out of Scope", "PC"], "SDTMVAR": ["PCSPEC"], "CDASHVAR": "PCSPEC"}, {"SDTMDOM": ["PC"], "SDTMVAR": ["PCSTAT"], "CDASHVAR": "PCSTAT"}, {"SDTMDOM": ["Out of Scope", "PC"], "SDTMVAR": ["PCTPT"], "CDASHVAR": "PCTPT"}, {"SDTMDOM": ["Out of Scope", "PC"], "SDTMVAR": ["PCTPTNUM"], "CDASHVAR": "PCTPTNUM"}, {"SDTMDOM": ["PE"], "SDTMVAR": ["PEAENO"], "CDASHVAR": "PEAENO"}, {"SDTMDOM": ["MO", "PE"], "SDTMVAR": ["MOCAT", "PECAT"], "CDASHVAR": "PECAT"}, {"SDTMDOM": ["PE"], "SDTMVAR": ["PECLSIG"], "CDASHVAR": "PECLSIG"}, {"SDTMDOM": ["MO", "PE"], "SDTMVAR": ["MODTC", "PEDTC"], "CDASHVAR": "PEDAT"}, {"SDTMDOM": ["PE"], "SDTMVAR": ["PEORRES"], "CDASHVAR": "PEDESC"}, {"SDTMDOM": ["PE"], "SDTMVAR": ["PEORRES", "PESTRESC"], "CDASHVAR": "PEFNDYN"}, {"SDTMDOM": ["MO", "PE"], "SDTMVAR": ["MOMETHOD", "PEMETHOD"], "CDASHVAR": "PEMETHOD"}, {"SDTMDOM": ["MO", "PE"], "SDTMVAR": ["MOORRES", "MOSTRESC", "PEORRES", "PESTRESC"], "CDASHVAR": "PEORRES"}, {"SDTMDOM": ["MO", "PE"], "SDTMVAR": ["MOORRES", "MOSTRESC", "PEORRES", "PESTRESC"], "CDASHVAR": "PEORRES1"}, {"SDTMDOM": ["MO", "PE"], "SDTMVAR": ["MOORRESU", "MOSTRESU", "PEORRESU", "PESTRESU"], "CDASHVAR": "PEORRESU"}, {"SDTMDOM": ["MO", "PE"], "SDTMVAR": ["MOSTAT", "PESTAT", "PETESTCD"], "CDASHVAR": "PEPERF"}, {"SDTMDOM": ["PE"], "SDTMVAR": ["PEORRES", "PESTRESC"], "CDASHVAR": "PERES"}, {"SDTMDOM": ["MO", "PE"], "SDTMVAR": ["MOSCAT", "PESCAT"], "CDASHVAR": "PESCAT"}, {"SDTMDOM": ["MO", "PE"], "SDTMVAR": ["MOSTAT", "PESTAT"], "CDASHVAR": "PESTAT"}, {"SDTMDOM": ["PE"], "SDTMVAR": ["PETEST"], "CDASHVAR": "PETEST"}, {"SDTMDOM": ["MO", "PE"], "SDTMVAR": ["MOTEST", "PETEST"], "CDASHVAR": "PETEST_LOC_05"}, {"SDTMDOM": ["PE"], "SDTMVAR": ["PEDTC"], "CDASHVAR": "PETIM"}, {"SDTMDOM": ["MO", "PE"], "SDTMVAR": ["MOTPT", "PETPT"], "CDASHVAR": "PETPT"}, {"SDTMDOM": ["PR"], "SDTMVAR": ["PRAENO"], "CDASHVAR": "PRAENO"}, {"SDTMDOM": ["PR"], "SDTMVAR": ["PRANA"], "CDASHVAR": "PRANA"}, {"SDTMDOM": ["MO", "PR"], "SDTMVAR": ["MOCAT", "PRCAT"], "CDASHVAR": "PRCAT"}, {"SDTMDOM": ["MO"], "SDTMVAR": ["MOCLSIG"], "CDASHVAR": "PRCLSIG"}, {"SDTMDOM": ["MO"], "SDTMVAR": ["MOCLSIGC"], "CDASHVAR": "PRCLSIGC"}, {"SDTMDOM": ["MO", "PR"], "SDTMVAR": ["MODTC", "PRDTC", "PRSTDTC"], "CDASHVAR": "PRDAT"}, {"SDTMDOM": ["PR"], "SDTMVAR": ["PRDOSE"], "CDASHVAR": "PRDOSE"}, {"SDTMDOM": ["PR"], "SDTMVAR": ["PRDOSU"], "CDASHVAR": "PRDOSU_UNIT_01"}, {"SDTMDOM": ["PR"], "SDTMVAR": ["PRDOSU"], "CDASHVAR": "PRDOSU_UNIT_02"}, {"SDTMDOM": ["PR"], "SDTMVAR": ["PRENDTC"], "CDASHVAR": "PRENDAT"}, {"SDTMDOM": ["PR"], "SDTMVAR": ["PRTRTINT"], "CDASHVAR": "PRINDC"}, {"SDTMDOM": ["PR"], "SDTMVAR": ["PRISO"], "CDASHVAR": "PRISO"}, {"SDTMDOM": ["PR"], "SDTMVAR": ["PRLOC"], "CDASHVAR": "PRLOC"}, {"SDTMDOM": ["MO", "PR"], "SDTMVAR": ["MOLOC", "PRLOC"], "CDASHVAR": "PRLOC_TUW"}, {"SDTMDOM": ["PR"], "SDTMVAR": ["PRMHNO"], "CDASHVAR": "PRMHNO"}, {"SDTMDOM": ["PR"], "SDTMVAR": ["PROCCUR"], "CDASHVAR": "PROCCUR"}, {"SDTMDOM": ["PR"], "SDTMVAR": ["PRENRTPT"], "CDASHVAR": "PRONGO"}, {"SDTMDOM": ["PR"], "SDTMVAR": ["PRNTRP"], "CDASHVAR": "PRORRES"}, {"SDTMDOM": ["PR"], "SDTMVAR": ["PRNTRPU"], "CDASHVAR": "PRORRESU"}, {"SDTMDOM": ["MO"], "SDTMVAR": ["MOORRES", "MOSTRESC"], "CDASHVAR": "PROSP"}, {"SDTMDOM": ["PR"], "SDTMVAR": ["PRPRESP"], "CDASHVAR": "PRPRESP"}, {"SDTMDOM": ["PR"], "SDTMVAR": ["PRINDC"], "CDASHVAR": "PRREAS"}, {"SDTMDOM": ["MO"], "SDTMVAR": ["MOORRES", "MOSTRESC"], "CDASHVAR": "PRRES"}, {"SDTMDOM": ["MO"], "SDTMVAR": ["MOORRES", "MOSTRESC"], "CDASHVAR": "PRRES_NORABN"}, {"SDTMDOM": ["MO", "PR"], "SDTMVAR": ["MOSCAT", "PRSCAT"], "CDASHVAR": "PRSCAT"}, {"SDTMDOM": ["MO", "PR"], "SDTMVAR": ["MOSCAT", "PRSCAT"], "CDASHVAR": "PRSCAT_PRSCATEG"}, {"SDTMDOM": ["MO", "PR"], "SDTMVAR": ["MOSTAT", "PRSTAT"], "CDASHVAR": "PRSTAT"}, {"SDTMDOM": ["PR"], "SDTMVAR": ["PRSTDTC"], "CDASHVAR": "PRSTDAT"}, {"SDTMDOM": ["MO", "PR"], "SDTMVAR": ["MODTC", "PRSTDTC"], "CDASHVAR": "PRTIM"}, {"SDTMDOM": ["PR"], "SDTMVAR": ["PRTPT"], "CDASHVAR": "PRTPT"}, {"SDTMDOM": ["MO", "PR"], "SDTMVAR": ["MOMETHOD", "PRTRT"], "CDASHVAR": "PRTRT"}, {"SDTMDOM": ["MO", "PR"], "SDTMVAR": ["MOMETHOD", "PRTRT"], "CDASHVAR": "PRTRTSP"}, {"SDTMDOM": ["MO", "PR"], "SDTMVAR": ["MOMETHOD", "PRTRT"], "CDASHVAR": "PRTRT_OP"}, {"SDTMDOM": ["PR"], "SDTMVAR": ["PRTRT"], "CDASHVAR": "PRTRT_TRANSTYP"}, {"SDTMDOM": ["PR"], "SDTMVAR": ["PRTRT"], "CDASHVAR": "PRTRT_WITH_CODING"}, {"SDTMDOM": ["MO"], "SDTMVAR": ["MOORRES", "MOSTRESC"], "CDASHVAR": "PRTUREL"}, {"SDTMDOM": ["PR"], "SDTMVAR": ["PRSPEOTH"], "CDASHVAR": "PRTYPSP"}, {"SDTMDOM": ["PR"], "SDTMVAR": ["PRSPEC"], "CDASHVAR": "PRTYP_LOC_06"}, {"SDTMDOM": ["PR"], "SDTMVAR": ["PROCCUR", "PRPRESP"], "CDASHVAR": "PRYN"}, {"SDTMDOM": ["QS", "QSEG"], "SDTMVAR": ["QSCAT"], "CDASHVAR": "QSCAT"}, {"SDTMDOM": ["QS", "QSEG"], "SDTMVAR": ["QSDTC"], "CDASHVAR": "QSDAT"}, {"SDTMDOM": ["QS", "QSEG"], "SDTMVAR": ["QSORRES", "QSSTRESC", "QSSTRESN"], "CDASHVAR": "QSORRES"}, {"SDTMDOM": ["QSEG"], "SDTMVAR": ["QSTESTCD"], "CDASHVAR": "QSTESTCD_ECOG1TC"}, {"SDTMDOM": ["QS"], "SDTMVAR": ["QSTESTCD"], "CDASHVAR": "QSTESTCD_KPSSTC"}, {"SDTMDOM": ["QSEG"], "SDTMVAR": ["QSTEST"], "CDASHVAR": "QSTEST_ECOG1TN"}, {"SDTMDOM": ["QS"], "SDTMVAR": ["QSTEST"], "CDASHVAR": "QSTEST_KPSSTN"}, {"SDTMDOM": ["QS", "QSEG"], "SDTMVAR": ["QSSTAT"], "CDASHVAR": "QSYN"}, {"SDTMDOM": ["DM"], "SDTMVAR": ["RACE"], "CDASHVAR": "RAIAN"}, {"SDTMDOM": ["DM"], "SDTMVAR": ["RACE"], "CDASHVAR": "RASIAN"}, {"SDTMDOM": ["DM"], "SDTMVAR": ["RACE"], "CDASHVAR": "RBLACK"}, {"SDTMDOM": ["IVRS"], "SDTMVAR": ["RDALDTC"], "CDASHVAR": "RDALDAT"}, {"SDTMDOM": ["IVRS"], "SDTMVAR": ["RDALGDTC"], "CDASHVAR": "RDALGDAT"}, {"SDTMDOM": ["IVRS"], "SDTMVAR": ["RDALGDTC"], "CDASHVAR": "RDALGTIM"}, {"SDTMDOM": ["IVRS"], "SDTMVAR": ["RDALDTC"], "CDASHVAR": "RDALTIM"}, {"SDTMDOM": ["IVRS"], "SDTMVAR": ["RDARM"], "CDASHVAR": "RDARM"}, {"SDTMDOM": ["IVRS"], "SDTMVAR": ["RDBKDDTC"], "CDASHVAR": "RDBKDAT"}, {"SDTMDOM": ["IVRS"], "SDTMVAR": ["RDBKUNB"], "CDASHVAR": "RDBKUNB"}, {"SDTMDOM": ["IVRS"], "SDTMVAR": ["RDBKWHO"], "CDASHVAR": "RDBKWHO"}, {"SDTMDOM": ["IVRS"], "SDTMVAR": ["RDBLKNB"], "CDASHVAR": "RDBLKNB"}, {"SDTMDOM": ["IVRS"], "SDTMVAR": ["RDGROUP1"], "CDASHVAR": "RDGROUP1"}, {"SDTMDOM": ["IVRS"], "SDTMVAR": ["RDGROUP2"], "CDASHVAR": "RDGROUP2"}, {"SDTMDOM": ["IVRS"], "SDTMVAR": ["RDGROUP3"], "CDASHVAR": "RDGROUP3"}, {"SDTMDOM": ["IVRS"], "SDTMVAR": ["RDRAND"], "CDASHVAR": "RDRAND"}, {"SDTMDOM": ["IVRS"], "SDTMVAR": ["RDSEQNB"], "CDASHVAR": "RDSEQNB"}, {"SDTMDOM": ["IVRS"], "SDTMVAR": ["RDSIDE"], "CDASHVAR": "RDSIDE"}, {"SDTMDOM": ["DM", "IVRS"], "SDTMVAR": ["RDSTRAT1", "STRATUM"], "CDASHVAR": "RDSTRAT1"}, {"SDTMDOM": ["DM", "IVRS"], "SDTMVAR": ["RDSTRAT2", "STRATUM2"], "CDASHVAR": "RDSTRAT2"}, {"SDTMDOM": ["DM", "IVRS"], "SDTMVAR": ["RDSTRAT3", "STRATUM3"], "CDASHVAR": "RDSTRAT3"}, {"SDTMDOM": ["DM", "IVRS"], "SDTMVAR": ["RDSTRAT4", "STRATUM4"], "CDASHVAR": "RDSTRAT4"}, {"SDTMDOM": ["DM", "IVRS"], "SDTMVAR": ["RDSTRAT5", "STRATUM5"], "CDASHVAR": "RDSTRAT5"}, {"SDTMDOM": ["IVRS"], "SDTMVAR": ["RDTTCAT"], "CDASHVAR": "RDTTCAT"}, {"SDTMDOM": ["IVRS"], "SDTMVAR": ["RDTTNBX"], "CDASHVAR": "RDTTNBX"}, {"SDTMDOM": ["IVRS"], "SDTMVAR": ["RDVISREF"], "CDASHVAR": "RDVISREF"}, {"SDTMDOM": ["DM"], "SDTMVAR": ["RACE"], "CDASHVAR": "RNHOPI"}, {"SDTMDOM": ["DM"], "SDTMVAR": ["RACE"], "CDASHVAR": "RNREP"}, {"SDTMDOM": ["RS"], "SDTMVAR": ["RSCAT"], "CDASHVAR": "RSCAT"}, {"SDTMDOM": ["RS"], "SDTMVAR": ["RSDTC"], "CDASHVAR": "RSDAT"}, {"SDTMDOM": ["RS"], "SDTMVAR": ["RSEVAL"], "CDASHVAR": "RSEVAL"}, {"SDTMDOM": ["RS"], "SDTMVAR": ["RSNESP"], "CDASHVAR": "RSNESP"}, {"SDTMDOM": ["RS"], "SDTMVAR": ["RSNL"], "CDASHVAR": "RSNL"}, {"SDTMDOM": ["RS"], "SDTMVAR": ["RSORRES", "RSSTRESC"], "CDASHVAR": "RSORRES_01"}, {"SDTMDOM": ["RS"], "SDTMVAR": ["RSORRES", "RSSTRESC"], "CDASHVAR": "RSORRES_OOR"}, {"SDTMDOM": ["RS"], "SDTMVAR": ["RSLOC1"], "CDASHVAR": "RSPDSP"}, {"SDTMDOM": ["RS"], "SDTMVAR": ["RSTEST"], "CDASHVAR": "RSTEST"}, {"SDTMDOM": ["DM"], "SDTMVAR": ["RACE"], "CDASHVAR": "RUNK"}, {"SDTMDOM": ["DM"], "SDTMVAR": ["RACE"], "CDASHVAR": "RWHITE"}, {"SDTMDOM": ["DM"], "SDTMVAR": ["SEX"], "CDASHVAR": "SEX"}, {"SDTMDOM": ["SS"], "SDTMVAR": ["DSSTDTC", "SSDTC"], "CDASHVAR": "SSDAT"}, {"SDTMDOM": ["DS", "SS"], "SDTMVAR": ["DSMETHOD", "SSMTHDCT"], "CDASHVAR": "SSMTHDCT"}, {"SDTMDOM": ["DS", "SS"], "SDTMVAR": ["DSMTHOTH", "SSMTHOTH"], "CDASHVAR": "SSMTHDSP"}, {"SDTMDOM": ["DS", "SS"], "SDTMVAR": ["DSTERM", "SSORRES", "SSSTRESC"], "CDASHVAR": "SSORRES"}, {"SDTMDOM": ["DM"], "SDTMVAR": ["COUNTRY", "SUBJID"], "CDASHVAR": "SUBJID"}, {"SDTMDOM": ["SU"], "SDTMVAR": ["SUDUR"], "CDASHVAR": "SUCDUR"}, {"SDTMDOM": ["SU"], "SDTMVAR": ["SUDOSFRQ"], "CDASHVAR": "SUDOSFRQ"}, {"SDTMDOM": ["SU"], "SDTMVAR": ["SUDOSFRQ", "SUOCCUR"], "CDASHVAR": "SUDOSFRQ_SU_ALC"}, {"SDTMDOM": ["SU"], "SDTMVAR": ["SUDOSU"], "CDASHVAR": "SUDOSU"}, {"SDTMDOM": ["SU"], "SDTMVAR": ["SUDOSE", "SUDOSTXT"], "CDASHVAR": "SUDSTXT"}, {"SDTMDOM": ["SU"], "SDTMVAR": ["SUDOSTXT"], "CDASHVAR": "SUDSTXT_SU_ALC"}, {"SDTMDOM": ["SU"], "SDTMVAR": ["SUENDTC"], "CDASHVAR": "SUENDAT"}, {"SDTMDOM": ["SU"], "SDTMVAR": ["SUNCF", "SUOCCUR"], "CDASHVAR": "SUNCF"}, {"SDTMDOM": ["SU"], "SDTMVAR": ["SUSTDTC"], "CDASHVAR": "SUSTDAT"}, {"SDTMDOM": ["SU"], "SDTMVAR": ["SUPRESP", "SUTRT"], "CDASHVAR": "SUTRT"}, {"SDTMDOM": ["TR", "TU"], "SDTMVAR": ["TRDTC", "TUDTC"], "CDASHVAR": "TRDAT"}, {"SDTMDOM": ["TR", "TU"], "SDTMVAR": ["TREVAL", "TUEVAL"], "CDASHVAR": "TREVAL"}, {"SDTMDOM": ["TR", "TU"], "SDTMVAR": ["TRGRPID", "TUORRES", "TUSTRESC"], "CDASHVAR": "TRGRPID"}, {"SDTMDOM": ["TR", "TU"], "SDTMVAR": ["TRLNKID", "TULNKID"], "CDASHVAR": "TRLNKID"}, {"SDTMDOM": ["TU"], "SDTMVAR": ["TULOC"], "CDASHVAR": "TRLOC"}, {"SDTMDOM": ["TU"], "SDTMVAR": ["TULOC"], "CDASHVAR": "TRLOC_FDG"}, {"SDTMDOM": ["TR", "TU"], "SDTMVAR": ["TRMETHOD", "TUMETHOD"], "CDASHVAR": "TRMETHOD"}, {"SDTMDOM": ["TR", "TU"], "SDTMVAR": ["TRMETOTH", "TUMETOTH"], "CDASHVAR": "TRMETSP"}, {"SDTMDOM": ["TR"], "SDTMVAR": ["TRORRES", "TRSPID", "TRSTRESC", "TRSTRESN"], "CDASHVAR": "TRORRES"}, {"SDTMDOM": ["TR"], "SDTMVAR": ["TRORRES", "TRSTRESC", "TRSTRESN"], "CDASHVAR": "TRORRES2"}, {"SDTMDOM": ["TR"], "SDTMVAR": ["TRORRES", "TRSTRESC", "TRSTRESN"], "CDASHVAR": "TRORRES2_FDG"}, {"SDTMDOM": ["TR"], "SDTMVAR": ["TRORRES", "TRSTRESC", "TRSTRESN"], "CDASHVAR": "TRORRES3"}, {"SDTMDOM": ["TR"], "SDTMVAR": ["TRORRESU", "TRSTRESU"], "CDASHVAR": "TRORRESU"}, {"SDTMDOM": ["TR"], "SDTMVAR": ["TRORRES", "TRSTRESC", "TRSTRESN", "TRTEST"], "CDASHVAR": "TRORRES_FDG"}, {"SDTMDOM": ["TR"], "SDTMVAR": ["TRSTAT"], "CDASHVAR": "TRSTAT"}, {"SDTMDOM": ["TU"], "SDTMVAR": ["TULOCDTL", "TUSUBLOC"], "CDASHVAR": "TRSUBLOC"}, {"SDTMDOM": ["TR"], "SDTMVAR": ["TRTEST"], "CDASHVAR": "TRTEST"}, {"SDTMDOM": ["TR"], "SDTMVAR": ["TRORRES"], "CDASHVAR": "TRYN"}, {"SDTMDOM": ["FARS"], "SDTMVAR": ["FAORRES", "FASTRESC"], "CDASHVAR": "TTATUS"}, {"SDTMDOM": ["FARS"], "SDTMVAR": ["FAORRES", "FASTRESC"], "CDASHVAR": "TTBR"}, {"SDTMDOM": ["FARS"], "SDTMVAR": ["FACAT"], "CDASHVAR": "TTCAT"}, {"SDTMDOM": ["FARS"], "SDTMVAR": ["FAOBJ", "FASPID", "FATESTCD"], "CDASHVAR": "TTCRIT"}, {"SDTMDOM": ["FARS"], "SDTMVAR": ["FAORRES", "FASTRESC"], "CDASHVAR": "TTDAT"}, {"SDTMDOM": ["FARS"], "SDTMVAR": ["FAORRES", "FASTRESC"], "CDASHVAR": "TTEXTEN"}, {"SDTMDOM": ["FARS"], "SDTMVAR": ["FAORRES", "FASTRESC"], "CDASHVAR": "TTEXTEN_NST"}, {"SDTMDOM": ["FARS"], "SDTMVAR": ["FAORRES", "FASTRESC"], "CDASHVAR": "TTORRES"}, {"SDTMDOM": ["FARS"], "SDTMVAR": ["FAORRES", "FASTRESC"], "CDASHVAR": "TTRSK"}, {"SDTMDOM": ["FARS"], "SDTMVAR": ["FASCAT"], "CDASHVAR": "TTSCAT"}, {"SDTMDOM": ["FARS"], "SDTMVAR": ["FAORRES", "FASTRESC"], "CDASHVAR": "TTYN"}, {"SDTMDOM": ["SV"], "SDTMVAR": ["SVENDTC", "SVSTDTC"], "CDASHVAR": "VISDAT"}, {"SDTMDOM": ["VS"], "SDTMVAR": ["VSAENO"], "CDASHVAR": "VSAENO"}, {"SDTMDOM": ["VS"], "SDTMVAR": ["VSDRVFL", "VSORRES", "VSSTRESC", "VSSTRESN"], "CDASHVAR": "VSBSA"}, {"SDTMDOM": ["VS"], "SDTMVAR": ["VSORRESU", "VSSTRESU\n"], "CDASHVAR": "VSBSAU"}, {"SDTMDOM": ["VS"], "SDTMVAR": ["VSCLSIG"], "CDASHVAR": "VSCLSIG"}, {"SDTMDOM": ["VS"], "SDTMVAR": ["VSDTC"], "CDASHVAR": "VSDAT"}, {"SDTMDOM": ["VS"], "SDTMVAR": ["VSORRES", "VSSTRESC", "VSSTRESN"], "CDASHVAR": "VSHGHT"}, {"SDTMDOM": ["VS"], "SDTMVAR": ["VSORRESU", "VSSTRESU", "VSSTRESU\n"], "CDASHVAR": "VSHGHTU"}, {"SDTMDOM": ["VS"], "SDTMVAR": ["VSLOC"], "CDASHVAR": "VSLOC_LOC_10"}, {"SDTMDOM": ["VS"], "SDTMVAR": ["VSORRES", "VSSTRESC", "VSSTRESN"], "CDASHVAR": "VSORRES"}, {"SDTMDOM": ["VS"], "SDTMVAR": ["VSORRESU", "VSSTRESU\n"], "CDASHVAR": "VSORRESU"}, {"SDTMDOM": ["VS"], "SDTMVAR": ["VSSTAT"], "CDASHVAR": "VSPERF"}, {"SDTMDOM": ["VS"], "SDTMVAR": ["VSPOS"], "CDASHVAR": "VSPOS"}, {"SDTMDOM": ["VS"], "SDTMVAR": ["VSSTAT"], "CDASHVAR": "VSSTAT"}, {"SDTMDOM": ["VS"], "SDTMVAR": ["VSSTPT"], "CDASHVAR": "VSSTPT"}, {"SDTMDOM": ["VS"], "SDTMVAR": ["VSTEST"], "CDASHVAR": "VSTEST"}, {"SDTMDOM": ["VS"], "SDTMVAR": ["VSTESTCD"], "CDASHVAR": "VSTESTCD"}, {"SDTMDOM": ["VS"], "SDTMVAR": ["VSDTC"], "CDASHVAR": "VSTIM"}, {"SDTMDOM": ["VS"], "SDTMVAR": ["VSTPT"], "CDASHVAR": "VSTPT"}], "CREATED": "20200330T223249", "IGCDASH": [{"CDASHQUE": "What is the study identifier?", "CDASHDOM": ["CO", "DM", "CM", "EC", "EX", "PR", "SU", "AE", "CE", "DS", "DV", "HO", "MH", "DA", "DD", "EG", "IE", "LB", "MI", "PC", "PE", "SC", "RP", "SR", "VS", "FA"], "SDTMVAR": ["STUDYID"], "CDASHVAR": "STUDYID"}, {"CDASHQUE": "What is the site identifier?", "CDASHDOM": ["CO", "DM", "CM", "EC", "EX", "PR", "SU", "AE", "CE", "DS", "DV", "HO", "MH", "DA", "DD", "EG", "IE", "LB", "MI", "PC", "PE", "SC", "RP", "SR", "VS", "FA"], "SDTMVAR": ["SITEID"], "CDASHVAR": "SITEID"}, {"CDASHQUE": "What is the subject identifier?", "CDASHDOM": ["CO", "DM", "CM", "EC", "EX", "PR", "SU", "AE", "CE", "DS", "DV", "HO", "MH", "DA", "DD", "EG", "IE", "LB", "MI", "PC", "PE", "SC", "RP", "SR", "VS", "FA"], "SDTMVAR": ["SUBJID"], "CDASHVAR": "SUBJID"}, {"CDASHQUE": "[protocol specified targeted question]", "CDASHDOM": ["CO"], "SDTMVAR": ["COVAL"], "CDASHVAR": "COVAL"}, {"CDASHQUE": "What is the subject's date of birth?", "CDASHDOM": ["DM"], "SDTMVAR": ["BRTHDTC"], "CDASHVAR": "BRTHDAT"}, {"CDASHQUE": "What is the subject's year of birth?", "CDASHDOM": ["DM"], "SDTMVAR": ["BRTHDTC"], "CDASHVAR": "BRTHYY"}, {"CDASHQUE": "What is the subject's month of birth?", "CDASHDOM": ["DM"], "SDTMVAR": ["BRTHDTC"], "CDASHVAR": "BRTHMO"}, {"CDASHQUE": "What is the subject's day of birth?", "CDASHDOM": ["DM"], "SDTMVAR": ["BRTHDTC"], "CDASHVAR": "BRTHDD"}, {"CDASHQUE": "What is the subject's time of birth?", "CDASHDOM": ["DM"], "SDTMVAR": ["BRTHDTC"], "CDASHVAR": "BRTHTIM"}, {"CDASHQUE": "What is the subject's age?", "CDASHDOM": ["DM"], "SDTMVAR": ["AGE"], "CDASHVAR": "AGE"}, {"CDASHQUE": "What is the age unit used?", "CDASHDOM": ["DM"], "SDTMVAR": ["AGEU"], "CDASHVAR": "AGEU"}, {"CDASHQUE": "What is the date of collection?", "CDASHDOM": ["DM"], "SDTMVAR": ["DMDTC"], "CDASHVAR": "DMDAT"}, {"CDASHQUE": "What is the sex of the subject?", "CDASHDOM": ["DM"], "SDTMVAR": ["SEX"], "CDASHVAR": "SEX"}, {"CDASHQUE": "Do you consider yourself Hispanic/Latino or not Hispanic/Latino?", "CDASHDOM": ["DM"], "SDTMVAR": ["ETHNIC"], "CDASHVAR": "ETHNIC"}, {"CDASHQUE": "What is the ethnicity of the subject?", "CDASHDOM": ["DM"], "SDTMVAR": ["QVAL"], "CDASHVAR": "CETHNIC"}, {"CDASHQUE": "Which of the following five racial designations best describes you? (More than one choice is acceptable.)", "CDASHDOM": ["DM"], "SDTMVAR": ["RACE"], "CDASHVAR": "RACE"}, {"CDASHQUE": "Which of the following racial designations best describes you? (More than one choice is acceptable.)", "CDASHDOM": ["DM"], "SDTMVAR": ["QVAL"], "CDASHVAR": "CRACE"}, {"CDASHQUE": "What was the other race?", "CDASHDOM": ["DM"], "SDTMVAR": ["QVAL"], "CDASHVAR": "RACEOTH"}, {"CDASHQUE": "What is the category for the (concomitant) [medication/treatment/therapy]?", "CDASHDOM": ["CM"], "SDTMVAR": ["CMCAT"], "CDASHVAR": "CMCAT"}, {"CDASHQUE": "What is the subcategory for the (concomitant) [medication/treatment/therapy]?", "CDASHDOM": ["CM"], "SDTMVAR": ["CMSCAT"], "CDASHVAR": "CMSCAT"}, {"CDASHQUE": "Were any (concomitant) [medication(s)/treatment(s)/therap(ies)] taken?", "CDASHDOM": ["CM"], "SDTMVAR": [], "CDASHVAR": "CMYN"}, {"CDASHQUE": "What is the (concomitant) [medication/treatment/therapy] identifier?", "CDASHDOM": ["CM"], "SDTMVAR": ["CMSPID"], "CDASHVAR": "CMSPID"}, {"CDASHQUE": "What was the (concomitant) [medication/treatment/therapy] (name/term)?", "CDASHDOM": ["CM"], "SDTMVAR": ["CMTRT"], "CDASHVAR": "CMTRT"}, {"CDASHQUE": "Did the subject take [pre-specified (concomitant) medication/treatment/therapy/dose]?; Has the subject taken [pre-specified (concomitant) medication/treatment/therapy/dose]?", "CDASHDOM": ["CM"], "SDTMVAR": ["CMOCCUR"], "CDASHVAR": "CMOCCUR"}, {"CDASHQUE": "What were the active ingredients?", "CDASHDOM": ["CM"], "SDTMVAR": [], "CDASHVAR": "CMINGRD"}, {"CDASHQUE": "For what indication, was the (concomitant) [medication/treatment/therapy] taken?", "CDASHDOM": ["CM"], "SDTMVAR": ["CMINDC"], "CDASHVAR": "CMINDC"}, {"CDASHQUE": "What was the identifier for the adverse event(s) for which the (concomitant) [medication/treatment/therapy] was taken?", "CDASHDOM": ["CM"], "SDTMVAR": [], "CDASHVAR": "CMAENO"}, {"CDASHQUE": "What was the identifier for the medical history event(s) for which the (concomitant) [medication/treatment/therapy] was taken?", "CDASHDOM": ["CM"], "SDTMVAR": [], "CDASHVAR": "CMMHNO"}, {"CDASHQUE": "What was the individual dose (of the concomitant [medication/treatment/therapy] per administration)?", "CDASHDOM": ["CM"], "SDTMVAR": ["CMDOSE"], "CDASHVAR": "CMDOSE"}, {"CDASHQUE": "What was the individual dose of the (concomitant) [mediation/treatment/therapy]?", "CDASHDOM": ["CM"], "SDTMVAR": ["CMDOSTXT", " CMDOSE"], "CDASHVAR": "CMDSTXT"}, {"CDASHQUE": "What was the total daily dose of the (concomitant) [medication/treatment/therapy]?", "CDASHDOM": ["CM"], "SDTMVAR": ["CMDOSTOT"], "CDASHVAR": "CMDOSTOT"}, {"CDASHQUE": "What is the unit (for the dose of concomitant [medication/treatment/therapy])?", "CDASHDOM": ["CM"], "SDTMVAR": ["CMDOSU"], "CDASHVAR": "CMDOSU"}, {"CDASHQUE": "What was the dose form of the (concomitant) [medication/treatment/therapy]?", "CDASHDOM": ["CM"], "SDTMVAR": ["CMDOSFRM"], "CDASHVAR": "CMDOSFRM"}, {"CDASHQUE": "What was the frequency of the (concomitant) [medication/treatment/therapy]?", "CDASHDOM": ["CM"], "SDTMVAR": ["CMDOSFRQ"], "CDASHVAR": "CMDOSFRQ"}, {"CDASHQUE": "What was the route of administration of the (concomitant) [medication/treatment/therapy]?", "CDASHDOM": ["CM"], "SDTMVAR": ["CMROUTE"], "CDASHVAR": "CMROUTE"}, {"CDASHQUE": "What was the (concomitant) [medication/treatment/therapy/dose] start date?", "CDASHDOM": ["CM"], "SDTMVAR": ["CMSTDTC"], "CDASHVAR": "CMSTDAT"}, {"CDASHQUE": "What was the (concomitant) [medication/treatment/therapy/dose] start time?", "CDASHDOM": ["CM"], "SDTMVAR": ["CMSTDTC"], "CDASHVAR": "CMSTTIM"}, {"CDASHQUE": "Was the (concomitant) [medication/treatment/therapy] given/taken prior to [CMSTTPT]?; Was the (concomitant) [medication/treatment/therapy] given/taken prior to study start?", "CDASHDOM": ["CM"], "SDTMVAR": ["CMSTTPT", " CMSTRF"], "CDASHVAR": "CMPRIOR"}, {"CDASHQUE": "Was the (concomitant) [medication/treatment/therapy] ongoing?", "CDASHDOM": ["CM"], "SDTMVAR": ["CMENRF", " CMENRTPT"], "CDASHVAR": "CMONGO"}, {"CDASHQUE": "What was the (concomitant) [medication/treatment/therapy/dose] end date?", "CDASHDOM": ["CM"], "SDTMVAR": ["CMENDTC"], "CDASHVAR": "CMENDAT"}, {"CDASHQUE": "What was the [medication/treatment/therapy/dose] end time?", "CDASHDOM": ["CM"], "SDTMVAR": ["CMENDTC"], "CDASHVAR": "CMENTIM"}, {"CDASHQUE": "", "CDASHDOM": ["CM"], "SDTMVAR": ["CMDECOD"], "CDASHVAR": "CMDECOD"}, {"CDASHQUE": "", "CDASHDOM": ["CM"], "SDTMVAR": ["CMCLAS"], "CDASHVAR": "CMCLAS"}, {"CDASHQUE": "", "CDASHDOM": ["CM"], "SDTMVAR": ["CMCLASCD"], "CDASHVAR": "CMCLASCD"}, {"CDASHQUE": "", "CDASHDOM": ["CM"], "SDTMVAR": ["QVAL"], "CDASHVAR": "CMATC1"}, {"CDASHQUE": "", "CDASHDOM": ["CM"], "SDTMVAR": ["QVAL"], "CDASHVAR": "CMATC1CD"}, {"CDASHQUE": "", "CDASHDOM": ["CM"], "SDTMVAR": ["QVAL"], "CDASHVAR": "CMATC2"}, {"CDASHQUE": "", "CDASHDOM": ["CM"], "SDTMVAR": ["QVAL"], "CDASHVAR": "CMATC2CD"}, {"CDASHQUE": "", "CDASHDOM": ["CM"], "SDTMVAR": ["QVAL"], "CDASHVAR": "CMATC3"}, {"CDASHQUE": "", "CDASHDOM": ["CM"], "SDTMVAR": ["QVAL"], "CDASHVAR": "CMATC3CD"}, {"CDASHQUE": "", "CDASHDOM": ["CM"], "SDTMVAR": ["QVAL"], "CDASHVAR": "CMATC4"}, {"CDASHQUE": "", "CDASHDOM": ["CM"], "SDTMVAR": ["QVAL"], "CDASHVAR": "CMATC4CD"}, {"CDASHQUE": "", "CDASHDOM": ["CM"], "SDTMVAR": ["QVAL"], "CDASHVAR": "CMATC5"}, {"CDASHQUE": "", "CDASHDOM": ["CM"], "SDTMVAR": ["QVAL"], "CDASHVAR": "CMATC5CD"}, {"CDASHQUE": "What is the trial period?", "CDASHDOM": ["EC", "EX", "DS"], "SDTMVAR": ["EPOCH"], "CDASHVAR": "EPOCH"}, {"CDASHQUE": "What is the trial period for this disposition event?", "CDASHDOM": ["EC", "EX", "DS"], "SDTMVAR": ["EPOCH"], "CDASHVAR": "EPOCH"}, {"CDASHQUE": "Were any study treatments taken?", "CDASHDOM": ["EC"], "SDTMVAR": [], "CDASHVAR": "ECYN"}, {"CDASHQUE": "What is the category of the study treatment?", "CDASHDOM": ["EC"], "SDTMVAR": ["ECCAT"], "CDASHVAR": "ECCAT"}, {"CDASHQUE": "What is the subcategory of the study treatment?", "CDASHDOM": ["EC"], "SDTMVAR": ["ECSCAT"], "CDASHVAR": "ECSCAT"}, {"CDASHQUE": "What was the study treatment name?", "CDASHDOM": ["EC"], "SDTMVAR": ["ECTRT"], "CDASHVAR": "ECTRT"}, {"CDASHQUE": "Was [study treatment/dose] administered?; Has the subject taken [study treatment/dose]?", "CDASHDOM": ["EC"], "SDTMVAR": ["ECOCCUR"], "CDASHVAR": "ECOCCUR"}, {"CDASHQUE": "What was the reason that the study treatment was not taken?", "CDASHDOM": ["EC"], "SDTMVAR": ["QVAL"], "CDASHVAR": "ECREASOC"}, {"CDASHQUE": "Does this record describe scheduled study treatment or performed study treatment?", "CDASHDOM": ["EC"], "SDTMVAR": ["ECMOOD"], "CDASHVAR": "ECMOOD"}, {"CDASHQUE": "What is the study treatment label identifier?", "CDASHDOM": ["EC"], "SDTMVAR": ["ECREFID"], "CDASHVAR": "ECREFID"}, {"CDASHQUE": "What was the lot number of the study treatment used?", "CDASHDOM": ["EC"], "SDTMVAR": ["ECLOT"], "CDASHVAR": "ECLOT"}, {"CDASHQUE": "Was the subject fasting?", "CDASHDOM": ["EC"], "SDTMVAR": ["ECFAST"], "CDASHVAR": "ECFAST"}, {"CDASHQUE": "What was the dose form of the study treatment?", "CDASHDOM": ["EC"], "SDTMVAR": ["ECDOSFRM"], "CDASHVAR": "ECDOSFRM"}, {"CDASHQUE": "What was the [intended/actual] [study treatment/dose] [start] date?", "CDASHDOM": ["EC"], "SDTMVAR": ["ECSTDTC"], "CDASHVAR": "ECSTDAT"}, {"CDASHQUE": "What was the [intended/actual] [study treatment/dose] (start) time?", "CDASHDOM": ["EC"], "SDTMVAR": ["ECSTDTC"], "CDASHVAR": "ECSTTIM"}, {"CDASHQUE": "What was the [intended/actual] [study treatment/dose] [end] date?", "CDASHDOM": ["EC"], "SDTMVAR": ["ECENDTC"], "CDASHVAR": "ECENDAT"}, {"CDASHQUE": "What was the [intended/actual] [study treatment/dose] end time?", "CDASHDOM": ["EC"], "SDTMVAR": ["ECENDTC"], "CDASHVAR": "ECENTIM"}, {"CDASHQUE": "What was the dose per administration (of study treatment)?", "CDASHDOM": ["EC"], "SDTMVAR": ["ECDOSTXT", " ECDOSE"], "CDASHVAR": "ECDSTXT"}, {"CDASHQUE": "What were the units for the dose?", "CDASHDOM": ["EC"], "SDTMVAR": ["ECDOSU"], "CDASHVAR": "ECDOSU"}, {"CDASHQUE": "What was the frequency of study treatment dosing?", "CDASHDOM": ["EC"], "SDTMVAR": ["ECDOSFRQ"], "CDASHVAR": "ECDOSFRQ"}, {"CDASHQUE": "What was the route of administration (of the study treatment)?", "CDASHDOM": ["EC"], "SDTMVAR": ["ECROUTE"], "CDASHVAR": "ECROUTE"}, {"CDASHQUE": "What was the intended dose regimen?", "CDASHDOM": ["EC"], "SDTMVAR": ["ECDOSRGM"], "CDASHVAR": "ECDOSRGM"}, {"CDASHQUE": "Was the dose adjusted?", "CDASHDOM": ["EC"], "SDTMVAR": [], "CDASHVAR": "ECDOSADJ"}, {"CDASHQUE": "What was the reason the dose was adjusted?", "CDASHDOM": ["EC"], "SDTMVAR": ["ECADJ"], "CDASHVAR": "ECADJ"}, {"CDASHQUE": "If the dose was interrupted, how long was the interruption?", "CDASHDOM": ["EC"], "SDTMVAR": ["QVAL"], "CDASHVAR": "ECITRPD"}, {"CDASHQUE": "If the dose was interrupted, what was the unit for the interruption duration?", "CDASHDOM": ["EC"], "SDTMVAR": ["QVAL"], "CDASHVAR": "ECITRPDU"}, {"CDASHQUE": "What was the anatomical location of the (study treatment) administration?", "CDASHDOM": ["EC"], "SDTMVAR": ["ECLOC"], "CDASHVAR": "ECLOC"}, {"CDASHQUE": "What was the total amount (Drug + Vehicle)(of study treatment) administered?", "CDASHDOM": ["EC"], "SDTMVAR": ["ECVAMT"], "CDASHVAR": "ECVAMT"}, {"CDASHQUE": "What was the unit for the amount (of study treatment) administered?", "CDASHDOM": ["EC"], "SDTMVAR": ["ECVAMTU"], "CDASHVAR": "ECVAMTU"}, {"CDASHQUE": "What was the study treatment infusion rate?", "CDASHDOM": ["EC"], "SDTMVAR": ["QVAL"], "CDASHVAR": "ECFLRT"}, {"CDASHQUE": "What was the unit for the (study treatment) infusion rate?", "CDASHDOM": ["EC"], "SDTMVAR": ["QVAL"], "CDASHVAR": "ECFLRTU"}, {"CDASHQUE": "What was the planned time point for study treatment?", "CDASHDOM": ["EC"], "SDTMVAR": ["ECTPT"], "CDASHVAR": "ECTPT"}, {"CDASHQUE": "Did the subject complete the full course of study treatment?", "CDASHDOM": ["EC"], "SDTMVAR": ["QVAL"], "CDASHVAR": "ECTRTCMP"}, {"CDASHQUE": "What was the side of the anatomical location of the (study treatment) administration?", "CDASHDOM": ["EC"], "SDTMVAR": ["ECLAT"], "CDASHVAR": "ECLAT"}, {"CDASHQUE": "What was the directionality of the anatomical location of the (study treatment) administration?", "CDASHDOM": ["EC"], "SDTMVAR": ["ECDIR"], "CDASHVAR": "ECDIR"}, {"CDASHQUE": "Were any study treatments taken?", "CDASHDOM": ["EX"], "SDTMVAR": [], "CDASHVAR": "EXYN"}, {"CDASHQUE": "What is the category of the study treatment?", "CDASHDOM": ["EX"], "SDTMVAR": ["EXCAT"], "CDASHVAR": "EXCAT"}, {"CDASHQUE": "What is the subcategory of the study treatment?", "CDASHDOM": ["EX"], "SDTMVAR": ["EXSCAT"], "CDASHVAR": "EXSCAT"}, {"CDASHQUE": "What was the study treatment?", "CDASHDOM": ["EX"], "SDTMVAR": ["EXTRT"], "CDASHVAR": "EXTRT"}, {"CDASHQUE": "What is the study treatment label identifier?", "CDASHDOM": ["EX"], "SDTMVAR": ["EXREFID"], "CDASHVAR": "EXREFID"}, {"CDASHQUE": "What was the lot number of the study treatment used?", "CDASHDOM": ["EX"], "SDTMVAR": ["EXLOT"], "CDASHVAR": "EXLOT"}, {"CDASHQUE": "Was the subject fasting?", "CDASHDOM": ["EX"], "SDTMVAR": ["EXFAST"], "CDASHVAR": "EXFAST"}, {"CDASHQUE": "What was the dose form of the study treatment?", "CDASHDOM": ["EX"], "SDTMVAR": ["EXDOSFRM"], "CDASHVAR": "EXDOSFRM"}, {"CDASHQUE": "What was the [intended/actual] [study treatment/dose] [start] date?", "CDASHDOM": ["EX"], "SDTMVAR": ["EXSTDTC"], "CDASHVAR": "EXSTDAT"}, {"CDASHQUE": "What was the [intended/actual] [study treatment/dose] (start) time?", "CDASHDOM": ["EX"], "SDTMVAR": ["EXSTDTC"], "CDASHVAR": "EXSTTIM"}, {"CDASHQUE": "What was the [intended/actual] [treatment/dose] [end] date?", "CDASHDOM": ["EX"], "SDTMVAR": ["EXENDTC"], "CDASHVAR": "EXENDAT"}, {"CDASHQUE": "What was the [intended/actual] [study treatment/dose] end time?", "CDASHDOM": ["EX"], "SDTMVAR": ["EXENDTC"], "CDASHVAR": "EXENTIM"}, {"CDASHQUE": "What was the dose per administration (of study treatment)?", "CDASHDOM": ["EX"], "SDTMVAR": ["EXDOSTXT", "EXDOSE"], "CDASHVAR": "EXDSTXT"}, {"CDASHQUE": "What was the unit for the dose?", "CDASHDOM": ["EX"], "SDTMVAR": ["EXDOSU"], "CDASHVAR": "EXDOSU"}, {"CDASHQUE": "What was the frequency of study treatment dosing?", "CDASHDOM": ["EX"], "SDTMVAR": ["EXDOSFRQ"], "CDASHVAR": "EXDOSFRQ"}, {"CDASHQUE": "What was the route of administration (of the study treatment)?", "CDASHDOM": ["EX"], "SDTMVAR": ["EXROUTE"], "CDASHVAR": "EXROUTE"}, {"CDASHQUE": "What was the intended dose regimen (of the study treatment)?", "CDASHDOM": ["EX"], "SDTMVAR": ["EXDOSRGM"], "CDASHVAR": "EXDOSRGM"}, {"CDASHQUE": "Was the dose adjusted?", "CDASHDOM": ["EX"], "SDTMVAR": [], "CDASHVAR": "EXDOSADJ"}, {"CDASHQUE": "What was the reason the dose was adjusted (from planned)?", "CDASHDOM": ["EX"], "SDTMVAR": ["EXADJ"], "CDASHVAR": "EXADJ"}, {"CDASHQUE": "If the dose was interrupted, how long was the interruption?", "CDASHDOM": ["EX"], "SDTMVAR": ["QVAL"], "CDASHVAR": "EXITRPD"}, {"CDASHQUE": "If the dose was interrupted, what were the units for the interruption duration?", "CDASHDOM": ["EX"], "SDTMVAR": ["QVAL"], "CDASHVAR": "EXITRPDU"}, {"CDASHQUE": "What was the anatomical location of the (study treatment) administration?", "CDASHDOM": ["EX"], "SDTMVAR": ["EXLOC"], "CDASHVAR": "EXLOC"}, {"CDASHQUE": "What was the total amount (Drug + Vehicle)(of study treatment) administered?", "CDASHDOM": ["EX"], "SDTMVAR": ["EXVAMT"], "CDASHVAR": "EXVAMT"}, {"CDASHQUE": "What was the unit for the amount (of study treatment) administered?", "CDASHDOM": ["EX"], "SDTMVAR": ["EXVAMTU"], "CDASHVAR": "EXVAMTU"}, {"CDASHQUE": "What was the study treatment infusion rate?", "CDASHDOM": ["EX"], "SDTMVAR": ["QVAL"], "CDASHVAR": "EXFLRT"}, {"CDASHQUE": "What were the units for the study treatment infusion rate?", "CDASHDOM": ["EX"], "SDTMVAR": ["QVAL"], "CDASHVAR": "EXFLRTU"}, {"CDASHQUE": "What was the planned time point for study treatment?", "CDASHDOM": ["EX"], "SDTMVAR": ["EXTPT"], "CDASHVAR": "EXTPT"}, {"CDASHQUE": "Did the subject complete the full course of study treatment?", "CDASHDOM": ["EX"], "SDTMVAR": ["QVAL"], "CDASHVAR": "EXTRTCMP"}, {"CDASHQUE": "What was the side of the anatomical location of the (study treatment) administration?", "CDASHDOM": ["EX"], "SDTMVAR": ["EXLAT"], "CDASHVAR": "EXLAT"}, {"CDASHQUE": "What was the directionality of the anatomical location of the (study treatment) administration?", "CDASHDOM": ["EX"], "SDTMVAR": ["EXDIR"], "CDASHVAR": "EXDIR"}, {"CDASHQUE": "Were any surgical, therapeutic or diagnostic procedures performed?", "CDASHDOM": ["PR"], "SDTMVAR": [], "CDASHVAR": "PRYN"}, {"CDASHQUE": "What was the category of the procedure?", "CDASHDOM": ["PR"], "SDTMVAR": ["PRCAT"], "CDASHVAR": "PRCAT"}, {"CDASHQUE": "What was the subcategory of the procedure?", "CDASHDOM": ["PR"], "SDTMVAR": ["PRSCAT"], "CDASHVAR": "PRSCAT"}, {"CDASHQUE": "What is the procedure identifier?", "CDASHDOM": ["PR"], "SDTMVAR": ["PRSPID"], "CDASHVAR": "PRSPID"}, {"CDASHQUE": "What was the procedure name?", "CDASHDOM": ["PR"], "SDTMVAR": ["PRTRT"], "CDASHVAR": "PRTRT"}, {"CDASHQUE": "", "CDASHDOM": ["PR"], "SDTMVAR": ["PRDECOD"], "CDASHVAR": "PRDECOD"}, {"CDASHQUE": "", "CDASHDOM": ["PR"], "SDTMVAR": ["PRMODIFY"], "CDASHVAR": "PRMODIFY"}, {"CDASHQUE": "", "CDASHDOM": ["PR"], "SDTMVAR": ["PRPRESP"], "CDASHVAR": "PRPRESP"}, {"CDASHQUE": "Was [PRTRT] performed?; Has the subject had [PRTRT]?", "CDASHDOM": ["PR"], "SDTMVAR": ["PROCCUR"], "CDASHVAR": "PROCCUR"}, {"CDASHQUE": "What was the reason that the procedure was not performed?", "CDASHDOM": ["PR"], "SDTMVAR": ["QVAL"], "CDASHVAR": "PRREASOC"}, {"CDASHQUE": "Was the procedure data collected?", "CDASHDOM": ["PR"], "SDTMVAR": ["PRSTAT"], "CDASHVAR": "PRCSTAT"}, {"CDASHQUE": "What was the reason not done?", "CDASHDOM": ["PR"], "SDTMVAR": ["PRREASND"], "CDASHVAR": "PRREASND"}, {"CDASHQUE": "Was the procedure performed prior to [PRSTTPT]?; Was the procedure performed prior to study start?", "CDASHDOM": ["PR"], "SDTMVAR": ["PRSTRTPT", " PRSTRF"], "CDASHVAR": "PRPRIOR"}, {"CDASHQUE": "What was the procedure [start] date ?", "CDASHDOM": ["PR"], "SDTMVAR": ["PRSTDTC"], "CDASHVAR": "PRSTDAT"}, {"CDASHQUE": "Was the procedure ongoing?", "CDASHDOM": ["PR"], "SDTMVAR": ["PRENRTPT", " PRENRF"], "CDASHVAR": "PRONGO"}, {"CDASHQUE": "What was the procedure end date?", "CDASHDOM": ["PR"], "SDTMVAR": ["PRENDTC"], "CDASHVAR": "PRENDAT"}, {"CDASHQUE": "For what indication, was the [PRTRT] performed?", "CDASHDOM": ["PR"], "SDTMVAR": ["PRINDC"], "CDASHVAR": "PRINDC"}, {"CDASHQUE": "What was the identifier for the adverse event(s) for which the procedure was performed?", "CDASHDOM": ["PR"], "SDTMVAR": [], "CDASHVAR": "PRAENO"}, {"CDASHQUE": "What was the identifier for the medical history event(s) for which the procedure was performed?", "CDASHDOM": ["PR"], "SDTMVAR": [], "CDASHVAR": "PRMHNO"}, {"CDASHQUE": "What was the [dose/amount] of [PRTRT] (per administration/for the procedure)?", "CDASHDOM": ["PR"], "SDTMVAR": ["PRDOSE", " PRDOSTXT"], "CDASHVAR": "PRDSTXT"}, {"CDASHQUE": "What was the unit?", "CDASHDOM": ["PR"], "SDTMVAR": ["PRDOSU"], "CDASHVAR": "PRDOSU"}, {"CDASHQUE": "What was the frequency of [PRTRT]?", "CDASHDOM": ["PR"], "SDTMVAR": ["PRDOSFRQ"], "CDASHVAR": "PRDOSFRQ"}, {"CDASHQUE": "What was the route of administration of the procedure?", "CDASHDOM": ["PR"], "SDTMVAR": ["PRROUTE"], "CDASHVAR": "PRROUTE"}, {"CDASHQUE": "What was the anatomical location where the procedure was performed?", "CDASHDOM": ["PR"], "SDTMVAR": ["PRLOC"], "CDASHVAR": "PRLOC"}, {"CDASHQUE": "What was the side of the anatomical location of the administration?", "CDASHDOM": ["PR"], "SDTMVAR": ["PRLAT"], "CDASHVAR": "PRLAT"}, {"CDASHQUE": "What was the directionality of the anatomical location of the procedure?", "CDASHDOM": ["PR"], "SDTMVAR": ["PRDIR"], "CDASHVAR": "PRDIR"}, {"CDASHQUE": "What was the portion or totality of the anatomical location that was treated?", "CDASHDOM": ["PR"], "SDTMVAR": ["PRPORTOT"], "CDASHVAR": "PRPORTOT"}, {"CDASHQUE": "Was the subject fasting?", "CDASHDOM": ["PR"], "SDTMVAR": ["PRFAST"], "CDASHVAR": "PRFAST"}, {"CDASHQUE": "What was the intended procedure regimen?", "CDASHDOM": ["PR"], "SDTMVAR": ["PRDOSRGM"], "CDASHVAR": "PRDOSRGM"}, {"CDASHQUE": "Was the procedure dose adjusted?", "CDASHDOM": ["PR"], "SDTMVAR": [], "CDASHVAR": "PRDOSADJ"}, {"CDASHQUE": "What was the reason the procedure dose was adjusted?", "CDASHDOM": ["PR"], "SDTMVAR": ["PRADJ"], "CDASHVAR": "PRADJ"}, {"CDASHQUE": "Did the subject complete the full course of the [PRTRT]?", "CDASHDOM": ["PR"], "SDTMVAR": ["QVAL"], "CDASHVAR": "PRTRTCMP"}, {"CDASHQUE": "Was the procedure interrupted?", "CDASHDOM": ["PR"], "SDTMVAR": [], "CDASHVAR": "PRITRPYN"}, {"CDASHQUE": "Why was the procedure interrupted?", "CDASHDOM": ["PR"], "SDTMVAR": ["QVAL"], "CDASHVAR": "PRITRPRS"}, {"CDASHQUE": "What was the duration of the procedure interruption?", "CDASHDOM": ["PR"], "SDTMVAR": ["QVAL"], "CDASHVAR": "PRITRPD"}, {"CDASHQUE": "What was the interruption duration unit?", "CDASHDOM": ["PR"], "SDTMVAR": [], "CDASHVAR": "PRITRPDU"}, {"CDASHQUE": "", "CDASHDOM": ["PR"], "SDTMVAR": ["QVAL"], "CDASHVAR": "PRLLT"}, {"CDASHQUE": "", "CDASHDOM": ["PR"], "SDTMVAR": ["QVAL"], "CDASHVAR": "PRLLTCD"}, {"CDASHQUE": "", "CDASHDOM": ["PR"], "SDTMVAR": ["QVAL"], "CDASHVAR": "PRPTCD"}, {"CDASHQUE": "", "CDASHDOM": ["PR"], "SDTMVAR": ["QVAL"], "CDASHVAR": "PRHLT"}, {"CDASHQUE": "", "CDASHDOM": ["PR"], "SDTMVAR": ["QVAL"], "CDASHVAR": "PRHLTCD"}, {"CDASHQUE": "", "CDASHDOM": ["PR"], "SDTMVAR": ["QVAL"], "CDASHVAR": "PRHLGT"}, {"CDASHQUE": "", "CDASHDOM": ["PR"], "SDTMVAR": ["QVAL"], "CDASHVAR": "PRHLGTCD"}, {"CDASHQUE": "", "CDASHDOM": ["PR"], "SDTMVAR": ["QVAL"], "CDASHVAR": "PRSOC"}, {"CDASHQUE": "", "CDASHDOM": ["PR"], "SDTMVAR": ["QVAL"], "CDASHVAR": "PRSOCCD"}, {"CDASHQUE": "What [is/was] the [name/type] of (the) substance used?", "CDASHDOM": ["SU"], "SDTMVAR": ["SUTRT"], "CDASHVAR": "SUTRT"}, {"CDASHQUE": "What is/was the category of the substance (used)?", "CDASHDOM": ["SU"], "SDTMVAR": ["SUCAT"], "CDASHVAR": "SUCAT"}, {"CDASHQUE": "What was the subcategory of the substance (used)?", "CDASHDOM": ["SU"], "SDTMVAR": ["SUSCAT"], "CDASHVAR": "SUSCAT"}, {"CDASHQUE": "Were any [sponsor-phrase/substance name/recreational drugs] used?", "CDASHDOM": ["SU"], "SDTMVAR": [], "CDASHVAR": "SUYN"}, {"CDASHQUE": "Does/Has the subject ever used/consumed [SUTRT/SUCAT]?", "CDASHDOM": ["SU"], "SDTMVAR": ["SUOCCUR", " SUSTRTPT", " SUSTRF", " SUENRTPT", " SUENRF"], "CDASHVAR": "SUNCF"}, {"CDASHQUE": "What is/was the substance use identifier?", "CDASHDOM": ["SU"], "SDTMVAR": ["SUSPID"], "CDASHVAR": "SUSPID"}, {"CDASHQUE": "Was the [SUTRT/SUCAT] use data collected?", "CDASHDOM": ["SU"], "SDTMVAR": ["SUSTAT"], "CDASHVAR": "SUCSTAT"}, {"CDASHQUE": "What was the reason the data was not collected?", "CDASHDOM": ["SU"], "SDTMVAR": ["SUREASND"], "CDASHVAR": "SUREASND"}, {"CDASHQUE": "What is/was the amount of [SUTRT] used/consumed?", "CDASHDOM": ["SU"], "SDTMVAR": ["SUDOSE", " SUDOSU", " SUDOSTXT"], "CDASHVAR": "SUDSTXT"}, {"CDASHQUE": "What [is/was] the frequency of [SUTRT] [use/consumption]?", "CDASHDOM": ["SU"], "SDTMVAR": ["SUDOSFRQ"], "CDASHVAR": "SUDOSFRQ"}, {"CDASHQUE": "What was the start date of [SUTRT/SUCAT] use/consumption?", "CDASHDOM": ["SU"], "SDTMVAR": ["SUSTDTC"], "CDASHVAR": "SUSTDAT"}, {"CDASHQUE": "What was the end date of [SUTRT/SUCAT] use/consumption?", "CDASHDOM": ["SU"], "SDTMVAR": ["SUENDTC"], "CDASHVAR": "SUENDAT"}, {"CDASHQUE": "What was the duration of [SUTRT/SUCAT] use/consumption?", "CDASHDOM": ["SU"], "SDTMVAR": ["SUDUR"], "CDASHVAR": "SUCDUR"}, {"CDASHQUE": "What was the unit of duration of [SUTRT/SUCAT] use/consumption?", "CDASHDOM": ["SU"], "SDTMVAR": ["SUDUR"], "CDASHVAR": "SUCDURU"}, {"CDASHQUE": "", "CDASHDOM": ["SU"], "SDTMVAR": ["SUMODIFY"], "CDASHVAR": "SUMODIFY"}, {"CDASHQUE": "", "CDASHDOM": ["SU"], "SDTMVAR": ["SUDECOD"], "CDASHVAR": "SUDECOD"}, {"CDASHQUE": "Were any adverse events experienced?", "CDASHDOM": ["AE"], "SDTMVAR": [], "CDASHVAR": "AEYN"}, {"CDASHQUE": "What is the category of the adverse event?", "CDASHDOM": ["AE"], "SDTMVAR": ["AECAT"], "CDASHVAR": "AECAT"}, {"CDASHQUE": "What is the subcategory of the adverse event?", "CDASHDOM": ["AE"], "SDTMVAR": ["AESCAT"], "CDASHVAR": "AESCAT"}, {"CDASHQUE": "What is the adverse event identifier?", "CDASHDOM": ["AE"], "SDTMVAR": ["AESPID"], "CDASHVAR": "AESPID"}, {"CDASHQUE": "What is the adverse event term?", "CDASHDOM": ["AE"], "SDTMVAR": ["AETERM"], "CDASHVAR": "AETERM"}, {"CDASHQUE": "Did the subject have [pre-specified adverse event/group of adverse events]?", "CDASHDOM": ["AE"], "SDTMVAR": ["FAORRES"], "CDASHVAR": "AEOCCUR"}, {"CDASHQUE": "", "CDASHDOM": ["AE"], "SDTMVAR": ["AEPRESP"], "CDASHVAR": "AEPRESP"}, {"CDASHQUE": "What is the adverse event start date?", "CDASHDOM": ["AE"], "SDTMVAR": ["AESTDTC"], "CDASHVAR": "AESTDAT"}, {"CDASHQUE": "What is the adverse event start time?", "CDASHDOM": ["AE"], "SDTMVAR": ["AESTDTC"], "CDASHVAR": "AESTTIM"}, {"CDASHQUE": "What is the anatomical location of the adverse event?", "CDASHDOM": ["AE"], "SDTMVAR": ["AELOC"], "CDASHVAR": "AELOC"}, {"CDASHQUE": "What is the side of the anatomical location of the adverse event?", "CDASHDOM": ["AE"], "SDTMVAR": ["AELAT"], "CDASHVAR": "AELAT"}, {"CDASHQUE": "What is the directionality of the anatomical location of the adverse event?", "CDASHDOM": ["AE"], "SDTMVAR": ["AEDIR"], "CDASHVAR": "AEDIR"}, {"CDASHQUE": "What is the portion or totality of the anatomical location of the adverse event?", "CDASHDOM": ["AE"], "SDTMVAR": ["AEPORTOT"], "CDASHVAR": "AEPORTOT"}, {"CDASHQUE": "Is the adverse event ongoing?", "CDASHDOM": ["AE"], "SDTMVAR": ["AEENRTPT", " AEENRF"], "CDASHVAR": "AEONGO"}, {"CDASHQUE": "What was the adverse event end date?", "CDASHDOM": ["AE"], "SDTMVAR": ["AEENDTC"], "CDASHVAR": "AEENDAT"}, {"CDASHQUE": "What was the adverse event end time?", "CDASHDOM": ["AE"], "SDTMVAR": ["AEENDTC"], "CDASHVAR": "AEENTIM"}, {"CDASHQUE": "What is the severity of the adverse event?", "CDASHDOM": ["AE"], "SDTMVAR": ["AESEV"], "CDASHVAR": "AESEV"}, {"CDASHQUE": "What is the [NCI CTCAE/Name of scale (toxicity) grade] of the adverse event?", "CDASHDOM": ["AE"], "SDTMVAR": ["AETOXGR"], "CDASHVAR": "AETOXGR"}, {"CDASHQUE": "Was the adverse event serious?", "CDASHDOM": ["AE"], "SDTMVAR": ["AESER"], "CDASHVAR": "AESER"}, {"CDASHQUE": "Did the adverse event result in death?", "CDASHDOM": ["AE"], "SDTMVAR": ["AESDTH"], "CDASHVAR": "AESDTH"}, {"CDASHQUE": "What [is/was] the subject's date of death?", "CDASHDOM": ["AE", "DS", "DD"], "SDTMVAR": ["DTHDTC"], "CDASHVAR": "DTHDAT"}, {"CDASHQUE": "What was the subject's date of death?", "CDASHDOM": ["AE", "DS", "DD"], "SDTMVAR": ["DTHDTC"], "CDASHVAR": "DTHDAT"}, {"CDASHQUE": "Was the adverse event life threatening?", "CDASHDOM": ["AE"], "SDTMVAR": ["AESLIFE"], "CDASHVAR": "AESLIFE"}, {"CDASHQUE": "Did the adverse event result in initial or prolonged hospitalization for the subject?", "CDASHDOM": ["AE"], "SDTMVAR": ["AESHOSP"], "CDASHVAR": "AESHOSP"}, {"CDASHQUE": "Did the adverse event result in disability or permanent damage?", "CDASHDOM": ["AE"], "SDTMVAR": ["AESDISAB"], "CDASHVAR": "AESDISAB"}, {"CDASHQUE": "Was the adverse event associated with a congenital anomaly or birth defect?", "CDASHDOM": ["AE"], "SDTMVAR": ["AESCONG"], "CDASHVAR": "AESCONG"}, {"CDASHQUE": "Did the adverse event require intervention to prevent permanent impairment or damage due to the use of a medical product?", "CDASHDOM": ["AE"], "SDTMVAR": ["QVAL"], "CDASHVAR": "AESINTV"}, {"CDASHQUE": "Was the adverse event a medically important event not covered by other serious criteria?", "CDASHDOM": ["AE"], "SDTMVAR": ["AESMIE"], "CDASHVAR": "AESMIE"}, {"CDASHQUE": "Was the adverse event associated with the development of cancer?", "CDASHDOM": ["AE"], "SDTMVAR": ["AESCAN"], "CDASHVAR": "AESCAN"}, {"CDASHQUE": "Did the adverse event occur with an overdose?", "CDASHDOM": ["AE"], "SDTMVAR": ["AESOD"], "CDASHVAR": "AESOD"}, {"CDASHQUE": "Was this adverse event related to study treatment?", "CDASHDOM": ["AE"], "SDTMVAR": ["AEREL"], "CDASHVAR": "AEREL"}, {"CDASHQUE": "What action was taken with study treatment?", "CDASHDOM": ["AE"], "SDTMVAR": ["AEACN"], "CDASHVAR": "AEACN"}, {"CDASHQUE": "What action was taken with a device used in the study?", "CDASHDOM": ["AE"], "SDTMVAR": ["AEACNDEV"], "CDASHVAR": "AEACNDEV"}, {"CDASHQUE": "What other action was taken?", "CDASHDOM": ["AE"], "SDTMVAR": ["AEACNOTH"], "CDASHVAR": "AEACNOTH"}, {"CDASHQUE": "What is the outcome of this adverse event?", "CDASHDOM": ["AE"], "SDTMVAR": ["AEOUT"], "CDASHVAR": "AEOUT"}, {"CDASHQUE": "Did the adverse event cause the subject to be discontinued from the study?", "CDASHDOM": ["AE"], "SDTMVAR": ["QVAL"], "CDASHVAR": "AEDIS"}, {"CDASHQUE": "Was this adverse event due to treatment other than study treatment?", "CDASHDOM": ["AE"], "SDTMVAR": [], "CDASHVAR": "AERLNSYN"}, {"CDASHQUE": "What is the relationship to non-study treatment?", "CDASHDOM": ["AE"], "SDTMVAR": ["AERELNST"], "CDASHVAR": "AERELNST"}, {"CDASHQUE": "Is this event of special interest?", "CDASHDOM": ["AE"], "SDTMVAR": [], "CDASHVAR": "AESI"}, {"CDASHQUE": "What is the adverse event pattern?", "CDASHDOM": ["AE"], "SDTMVAR": ["AEPATT"], "CDASHVAR": "AEPATT"}, {"CDASHQUE": "Was a concomitant or additional treatment given due to this adverse event?", "CDASHDOM": ["AE"], "SDTMVAR": ["AECONTRT"], "CDASHVAR": "AECONTRT"}, {"CDASHQUE": "", "CDASHDOM": ["AE"], "SDTMVAR": ["AEMODIFY"], "CDASHVAR": "AEMODIFY"}, {"CDASHQUE": "", "CDASHDOM": ["AE"], "SDTMVAR": ["AEDECOD"], "CDASHVAR": "AEDECOD"}, {"CDASHQUE": "", "CDASHDOM": ["AE"], "SDTMVAR": ["AELLT"], "CDASHVAR": "AELLT"}, {"CDASHQUE": "", "CDASHDOM": ["AE"], "SDTMVAR": ["AELLTCD"], "CDASHVAR": "AELLTCD"}, {"CDASHQUE": "", "CDASHDOM": ["AE"], "SDTMVAR": ["AEPTCD"], "CDASHVAR": "AEPTCD"}, {"CDASHQUE": "", "CDASHDOM": ["AE"], "SDTMVAR": ["AEHLT"], "CDASHVAR": "AEHLT"}, {"CDASHQUE": "", "CDASHDOM": ["AE"], "SDTMVAR": ["AEHLTCD"], "CDASHVAR": "AEHLTCD"}, {"CDASHQUE": "", "CDASHDOM": ["AE"], "SDTMVAR": ["AEHLGT"], "CDASHVAR": "AEHLGT"}, {"CDASHQUE": "", "CDASHDOM": ["AE"], "SDTMVAR": ["AEHLGTCD"], "CDASHVAR": "AEHLGTCD"}, {"CDASHQUE": "", "CDASHDOM": ["AE"], "SDTMVAR": ["AESOC"], "CDASHVAR": "AESOC"}, {"CDASHQUE": "", "CDASHDOM": ["AE"], "SDTMVAR": ["AESOCCD"], "CDASHVAR": "AESOCCD"}, {"CDASHQUE": "Were any other actions taken in response to this adverse event?", "CDASHDOM": ["AE"], "SDTMVAR": [], "CDASHVAR": "AEACNOYN"}, {"CDASHQUE": "What is the category of the clinical event?", "CDASHDOM": ["CE"], "SDTMVAR": ["CECAT"], "CDASHVAR": "CECAT"}, {"CDASHQUE": "What is the subcategory of the clinical event?", "CDASHDOM": ["CE"], "SDTMVAR": ["CESCAT"], "CDASHVAR": "CESCAT"}, {"CDASHQUE": "Were any clinical events experienced?", "CDASHDOM": ["CE"], "SDTMVAR": [], "CDASHVAR": "CEYN"}, {"CDASHQUE": "What is the clinical event identifier?", "CDASHDOM": ["CE"], "SDTMVAR": ["CESPID"], "CDASHVAR": "CESPID"}, {"CDASHQUE": "What is the clinical event term?", "CDASHDOM": ["CE"], "SDTMVAR": ["CETERM"], "CDASHVAR": "CETERM"}, {"CDASHQUE": "Did the subject have [pre-specified clinical event/group of clinical events ]?", "CDASHDOM": ["CE"], "SDTMVAR": ["CEOCCUR"], "CDASHVAR": "CEOCCUR"}, {"CDASHQUE": "", "CDASHDOM": ["CE"], "SDTMVAR": ["CEPRESP"], "CDASHVAR": "CEPRESP"}, {"CDASHQUE": "What was the [clinical event] start date?", "CDASHDOM": ["CE"], "SDTMVAR": ["CESTDTC"], "CDASHVAR": "CESTDAT"}, {"CDASHQUE": "What was the [clinical event] start time?", "CDASHDOM": ["CE"], "SDTMVAR": ["CESTDTC"], "CDASHVAR": "CESTTIM"}, {"CDASHQUE": "What was the anatomical location of the [clinical event]?", "CDASHDOM": ["CE"], "SDTMVAR": ["CELOC"], "CDASHVAR": "CELOC"}, {"CDASHQUE": "What was the side of the anatomical location of the [clinical event]?", "CDASHDOM": ["CE"], "SDTMVAR": ["CELAT"], "CDASHVAR": "CELAT"}, {"CDASHQUE": "What was the directionality of the anatomical location of the [clinical event]?", "CDASHDOM": ["CE"], "SDTMVAR": ["CEDIR"], "CDASHVAR": "CEDIR"}, {"CDASHQUE": "What was the portion or totality of the anatomical location of the clinical event?", "CDASHDOM": ["CE"], "SDTMVAR": ["CEPORTOT"], "CDASHVAR": "CEPORTOT"}, {"CDASHQUE": "Was the [clinical event] ongoing?", "CDASHDOM": ["CE"], "SDTMVAR": ["CEENRTPT", " CEENRF"], "CDASHVAR": "CEONGO"}, {"CDASHQUE": "What was the [clinical event] end date?", "CDASHDOM": ["CE"], "SDTMVAR": ["CEENDTC"], "CDASHVAR": "CEENDAT"}, {"CDASHQUE": "What was the [clinical event] end time?", "CDASHDOM": ["CE"], "SDTMVAR": ["CEENDTC"], "CDASHVAR": "CEENTIM"}, {"CDASHQUE": "What was the severity of the [clinical event]?", "CDASHDOM": ["CE"], "SDTMVAR": ["CESEV"], "CDASHVAR": "CESEV"}, {"CDASHQUE": "What was the description of the toxicity?", "CDASHDOM": ["CE"], "SDTMVAR": ["CETOX"], "CDASHVAR": "CETOX"}, {"CDASHQUE": "What was the toxicity grade?", "CDASHDOM": ["CE"], "SDTMVAR": ["CETOXGR"], "CDASHVAR": "CETOXGR"}, {"CDASHQUE": "", "CDASHDOM": ["CE"], "SDTMVAR": ["CEMODIFY"], "CDASHVAR": "CEMODIFY"}, {"CDASHQUE": "", "CDASHDOM": ["CE"], "SDTMVAR": ["CEDECOD"], "CDASHVAR": "CEDECOD"}, {"CDASHQUE": "", "CDASHDOM": ["CE"], "SDTMVAR": ["CELLT"], "CDASHVAR": "CELLT"}, {"CDASHQUE": "", "CDASHDOM": ["CE"], "SDTMVAR": ["CELLTCD"], "CDASHVAR": "CELLTCD"}, {"CDASHQUE": "", "CDASHDOM": ["CE"], "SDTMVAR": ["CEPTCD"], "CDASHVAR": "CEPTCD"}, {"CDASHQUE": "", "CDASHDOM": ["CE"], "SDTMVAR": ["CEHLT"], "CDASHVAR": "CEHLT"}, {"CDASHQUE": "", "CDASHDOM": ["CE"], "SDTMVAR": ["CEHLTCD"], "CDASHVAR": "CEHLTCD"}, {"CDASHQUE": "", "CDASHDOM": ["CE"], "SDTMVAR": ["CEHLGT"], "CDASHVAR": "CEHLGT"}, {"CDASHQUE": "", "CDASHDOM": ["CE"], "SDTMVAR": ["CEHLGTCD"], "CDASHVAR": "CEHLGTCD"}, {"CDASHQUE": "", "CDASHDOM": ["CE"], "SDTMVAR": ["CESOC"], "CDASHVAR": "CESOC"}, {"CDASHQUE": "", "CDASHDOM": ["CE"], "SDTMVAR": ["CESOCCD"], "CDASHVAR": "CESOCCD"}, {"CDASHQUE": "What was the category of the disposition?", "CDASHDOM": ["DS"], "SDTMVAR": ["DSCAT"], "CDASHVAR": "DSCAT"}, {"CDASHQUE": "What was the subcategory of the disposition?", "CDASHDOM": ["DS"], "SDTMVAR": ["DSSCAT"], "CDASHVAR": "DSSCAT"}, {"CDASHQUE": "What was the subject's status?", "CDASHDOM": ["DS"], "SDTMVAR": ["DSDECOD"], "CDASHVAR": "DSDECOD"}, {"CDASHQUE": "What was the subject's status?; If [DSDECOD], specify", "CDASHDOM": ["DS"], "SDTMVAR": ["DSTERM"], "CDASHVAR": "DSTERM"}, {"CDASHQUE": "What was the [protocol milestone/disposition event/other event name] date?", "CDASHDOM": ["DS"], "SDTMVAR": ["DSSTDTC"], "CDASHVAR": "DSSTDAT"}, {"CDASHQUE": "What was the [protocol milestone/disposition event/other event name] time?", "CDASHDOM": ["DS"], "SDTMVAR": ["DSSTDTC"], "CDASHVAR": "DSSTTIM"}, {"CDASHQUE": "Was (study) treatment unblinded by the site?", "CDASHDOM": ["DS"], "SDTMVAR": ["DSTERM", " DSDECOD"], "CDASHVAR": "DSUNBLND"}, {"CDASHQUE": "Will the subject continue?", "CDASHDOM": ["DS"], "SDTMVAR": ["QVAL"], "CDASHVAR": "DSCONT"}, {"CDASHQUE": "What is the next [epoch/period/study/trial] the subject will [continue to/enter/enroll ]?", "CDASHDOM": ["DS"], "SDTMVAR": [], "CDASHVAR": "DSNEXT"}, {"CDASHQUE": "What is the category of the protocol deviation?", "CDASHDOM": ["DV"], "SDTMVAR": ["DVCAT"], "CDASHVAR": "DVCAT"}, {"CDASHQUE": "What is the subcategory of the protocol deviation?", "CDASHDOM": ["DV"], "SDTMVAR": ["DVSCAT"], "CDASHVAR": "DVSCAT"}, {"CDASHQUE": "Were there any protocol deviations?", "CDASHDOM": ["DV"], "SDTMVAR": [], "CDASHVAR": "DVYN"}, {"CDASHQUE": "What was the (standardized) protocol deviation (term/(code)?", "CDASHDOM": ["DV"], "SDTMVAR": ["DVDECOD"], "CDASHVAR": "DVDECOD"}, {"CDASHQUE": "What was the protocol deviation term?", "CDASHDOM": ["DV"], "SDTMVAR": ["DVTERM"], "CDASHVAR": "DVTERM"}, {"CDASHQUE": "What was the protocol deviation start date?", "CDASHDOM": ["DV"], "SDTMVAR": ["DVSTDTC"], "CDASHVAR": "DVSTDAT"}, {"CDASHQUE": "What was the protocol deviation start time?", "CDASHDOM": ["DV"], "SDTMVAR": ["DVSTDTC"], "CDASHVAR": "DVSTTIM"}, {"CDASHQUE": "What was the protocol deviation end date?", "CDASHDOM": ["DV"], "SDTMVAR": ["DVENDTC"], "CDASHVAR": "DVENDAT"}, {"CDASHQUE": "What was the protocol deviation end time?", "CDASHDOM": ["DV"], "SDTMVAR": ["DVENDTC"], "CDASHVAR": "DVENTIM"}, {"CDASHQUE": "What is the protocol deviation identifier?", "CDASHDOM": ["DV"], "SDTMVAR": ["DVSPID"], "CDASHVAR": "DVSPID"}, {"CDASHQUE": "Was the healthcare encounter data collected?", "CDASHDOM": ["HO"], "SDTMVAR": ["HOSTAT"], "CDASHVAR": "HOCSTAT"}, {"CDASHQUE": "Were there any healthcare encounters?", "CDASHDOM": ["HO"], "SDTMVAR": [], "CDASHVAR": "HOYN"}, {"CDASHQUE": "What was the category of the healthcare encounter?", "CDASHDOM": ["HO"], "SDTMVAR": ["HOCAT"], "CDASHVAR": "HOCAT"}, {"CDASHQUE": "What was the subcategory of the healthcare encounter?", "CDASHDOM": ["HO"], "SDTMVAR": ["HOSCAT"], "CDASHVAR": "HOSCAT"}, {"CDASHQUE": "Did the subject have [pre-specified healthcare encounter term]?", "CDASHDOM": ["HO"], "SDTMVAR": ["HOOCCUR"], "CDASHVAR": "HOOCCUR"}, {"CDASHQUE": "What was the reason the data was not collected?", "CDASHDOM": ["HO"], "SDTMVAR": ["HOREASND"], "CDASHVAR": "HOREASND"}, {"CDASHQUE": "What was the healthcare encounter identifier?", "CDASHDOM": ["HO"], "SDTMVAR": ["HOSPID"], "CDASHVAR": "HOSPID"}, {"CDASHQUE": "What was the healthcare encounter?; If [HODECOD], specify", "CDASHDOM": ["HO"], "SDTMVAR": ["HOTERM"], "CDASHVAR": "HOTERM"}, {"CDASHQUE": "What was the (standardized) healthcare encounter (term/code)?", "CDASHDOM": ["HO"], "SDTMVAR": ["HODECOD"], "CDASHVAR": "HODECOD"}, {"CDASHQUE": "What was the [healthcare encounter/HOTERM] [start/admission] date?", "CDASHDOM": ["HO"], "SDTMVAR": ["HOSTDTC"], "CDASHVAR": "HOSTDAT"}, {"CDASHQUE": "What was the [healthcare encounter/HOTERM] [start/admission] time?", "CDASHDOM": ["HO"], "SDTMVAR": ["HOSTDTC"], "CDASHVAR": "HOSTTIM"}, {"CDASHQUE": "What was the [healthcare encounter/HOTERM] [end/discharge] date?", "CDASHDOM": ["HO"], "SDTMVAR": ["HOENDTC"], "CDASHVAR": "HOENDAT"}, {"CDASHQUE": "What was the [healthcare encounter/HOTERM] [end/discharge] time?", "CDASHDOM": ["HO"], "SDTMVAR": ["HOENDTC"], "CDASHVAR": "HOENTIM"}, {"CDASHQUE": "What was the duration of the [healthcare encounter/HOTERM]?", "CDASHDOM": ["HO"], "SDTMVAR": ["HODUR"], "CDASHVAR": "HOCDUR"}, {"CDASHQUE": "What was the duration unit of the [healthcare encounter/HOTERM]?", "CDASHDOM": ["HO"], "SDTMVAR": ["HODUR"], "CDASHVAR": "HOCDURU"}, {"CDASHQUE": "Was the [healthcare encounter/HOTERM] ongoing?", "CDASHDOM": ["HO"], "SDTMVAR": ["HOENRF", " HOENRTPT"], "CDASHVAR": "HOONGO"}, {"CDASHQUE": "What was the reason for the [healthcare encounter/HOTERM]?", "CDASHDOM": ["HO"], "SDTMVAR": ["QVAL"], "CDASHVAR": "HOREAS"}, {"CDASHQUE": "What was the identifier for the adverse event(s), which precipitated the [healthcare encounter/HOTERM]?", "CDASHDOM": ["HO"], "SDTMVAR": [], "CDASHVAR": "HOAENO"}, {"CDASHQUE": "Were any medical conditions or events reported?; Has the subject had any medical conditions or events?", "CDASHDOM": ["MH"], "SDTMVAR": [], "CDASHVAR": "MHYN"}, {"CDASHQUE": "What was the category of the medical history?", "CDASHDOM": ["MH"], "SDTMVAR": ["MHCAT"], "CDASHVAR": "MHCAT"}, {"CDASHQUE": "What was the subcategory of the medical history?", "CDASHDOM": ["MH"], "SDTMVAR": ["MHSCAT"], "CDASHVAR": "MHSCAT"}, {"CDASHQUE": "What was the date the medical history was collected?", "CDASHDOM": ["MH"], "SDTMVAR": ["MHDTC"], "CDASHVAR": "MHDAT"}, {"CDASHQUE": "What is the medical condition or event identifier?", "CDASHDOM": ["MH"], "SDTMVAR": ["MHSPID"], "CDASHVAR": "MHSPID"}, {"CDASHQUE": "What was the medical history event date type?", "CDASHDOM": ["MH"], "SDTMVAR": ["QVAL"], "CDASHVAR": "MHEVDTYP"}, {"CDASHQUE": "What is the medical condition or event term?", "CDASHDOM": ["MH"], "SDTMVAR": ["MHTERM"], "CDASHVAR": "MHTERM"}, {"CDASHQUE": "Did the subject have [pre-specified medical condition/event/group of medical conditions]; Is the [pre-specified medical occurring ]?", "CDASHDOM": ["MH"], "SDTMVAR": ["MHOCCUR"], "CDASHVAR": "MHOCCUR"}, {"CDASHQUE": "", "CDASHDOM": ["MH"], "SDTMVAR": ["MHPRESP"], "CDASHVAR": "MHPRESP"}, {"CDASHQUE": "Did the medical condition or event start prior to [MHSTTPT]?; Did the medical condition or event start prior to study start?", "CDASHDOM": ["MH"], "SDTMVAR": ["MHSTTPT", " MHSTRF"], "CDASHVAR": "MHPRIOR"}, {"CDASHQUE": "Is the medical condition or event ongoing?", "CDASHDOM": ["MH"], "SDTMVAR": ["MHENRF", " MHENRTPT"], "CDASHVAR": "MHONGO"}, {"CDASHQUE": "Is the medical condition or event under control?", "CDASHDOM": ["MH"], "SDTMVAR": ["QVAL"], "CDASHVAR": "MHCTRL"}, {"CDASHQUE": "What was the medical condition or event start date?", "CDASHDOM": ["MH"], "SDTMVAR": ["MHSTDTC"], "CDASHVAR": "MHSTDAT"}, {"CDASHQUE": "What was the medical condition or event end date?", "CDASHDOM": ["MH"], "SDTMVAR": ["MHENDTC"], "CDASHVAR": "MHENDAT"}, {"CDASHQUE": "What was the anatomical location of the medical condition or event?", "CDASHDOM": ["MH"], "SDTMVAR": ["MHLOC"], "CDASHVAR": "MHLOC"}, {"CDASHQUE": "What was the side of the anatomical location of the medical condition or event?", "CDASHDOM": ["MH"], "SDTMVAR": ["MHLAT"], "CDASHVAR": "MHLAT"}, {"CDASHQUE": "What was the directionality of the anatomical location of the medical condition or event?", "CDASHDOM": ["MH"], "SDTMVAR": ["MHDIR"], "CDASHVAR": "MHDIR"}, {"CDASHQUE": "What was the portion or totality of the anatomical location of the of the medical condition or event?", "CDASHDOM": ["MH"], "SDTMVAR": ["MHPORTOT"], "CDASHVAR": "MHPORTOT"}, {"CDASHQUE": "", "CDASHDOM": ["MH"], "SDTMVAR": ["MHMODIFY"], "CDASHVAR": "MHMODIFY"}, {"CDASHQUE": "", "CDASHDOM": ["MH"], "SDTMVAR": ["MHDECOD"], "CDASHVAR": "MHDECOD"}, {"CDASHQUE": "", "CDASHDOM": ["MH"], "SDTMVAR": ["MHLLT"], "CDASHVAR": "MHLLT"}, {"CDASHQUE": "", "CDASHDOM": ["MH"], "SDTMVAR": ["MHLLTCD"], "CDASHVAR": "MHLLTCD"}, {"CDASHQUE": "", "CDASHDOM": ["MH"], "SDTMVAR": ["MHPTCD"], "CDASHVAR": "MHPTCD"}, {"CDASHQUE": "", "CDASHDOM": ["MH"], "SDTMVAR": ["MHHLT"], "CDASHVAR": "MHHLT"}, {"CDASHQUE": "", "CDASHDOM": ["MH"], "SDTMVAR": ["MHHLTCD"], "CDASHVAR": "MHHLTCD"}, {"CDASHQUE": "", "CDASHDOM": ["MH"], "SDTMVAR": ["MHHLGT"], "CDASHVAR": "MHHLGT"}, {"CDASHQUE": "", "CDASHDOM": ["MH"], "SDTMVAR": ["MHHLGTCD"], "CDASHVAR": "MHHLGTCD"}, {"CDASHQUE": "", "CDASHDOM": ["MH"], "SDTMVAR": ["MHSOC"], "CDASHVAR": "MHSOC"}, {"CDASHQUE": "", "CDASHDOM": ["MH"], "SDTMVAR": ["MHSOCCD"], "CDASHVAR": "MHSOCCD"}, {"CDASHQUE": "What was the date the drug accountability assessment was performed?", "CDASHDOM": ["DA"], "SDTMVAR": ["DADTC"], "CDASHVAR": "DADAT"}, {"CDASHQUE": "Was dispensed amount collected?", "CDASHDOM": ["DA"], "SDTMVAR": ["DASTAT"], "CDASHVAR": "DISPAMT_DAPERF"}, {"CDASHQUE": "What was the type of treatment dispensed?", "CDASHDOM": ["DA"], "SDTMVAR": ["DACAT"], "CDASHVAR": "DISPAMT_DACAT"}, {"CDASHQUE": "What was the name of the treatment dispensed?", "CDASHDOM": ["DA"], "SDTMVAR": ["DASCAT"], "CDASHVAR": "DISPAMT_DASCAT"}, {"CDASHQUE": "What was the dispensed treatment label identifier?", "CDASHDOM": ["DA"], "SDTMVAR": ["DAREFID"], "CDASHVAR": "DISPAMT_DAREFID"}, {"CDASHQUE": "What is the amount dispensed?", "CDASHDOM": ["DA"], "SDTMVAR": ["DAORRES", " DATEST", " DATESTCD"], "CDASHVAR": "DISPAMT_DAORRES"}, {"CDASHQUE": "What was the unit?", "CDASHDOM": ["DA"], "SDTMVAR": ["DAORRESU"], "CDASHVAR": "DISPAMT_DAORRESU"}, {"CDASHQUE": "Was returned amount collected?", "CDASHDOM": ["DA"], "SDTMVAR": ["DASTAT"], "CDASHVAR": "RETAMT_DAPERF"}, {"CDASHQUE": "What was the type of treatment returned?", "CDASHDOM": ["DA"], "SDTMVAR": ["DACAT"], "CDASHVAR": "RETAMT_DACAT"}, {"CDASHQUE": "What was the name of the treatment returned?", "CDASHDOM": ["DA"], "SDTMVAR": ["DASCAT"], "CDASHVAR": "RETAMT_DASCAT"}, {"CDASHQUE": "What was the returned treatment label identifier?", "CDASHDOM": ["DA"], "SDTMVAR": ["DAREFID"], "CDASHVAR": "RETAMT_DAREFID"}, {"CDASHQUE": "What is the amount returned?", "CDASHDOM": ["DA"], "SDTMVAR": ["DAORRES", " DATEST", " DATESTCD"], "CDASHVAR": "RETAMT_DAORRES"}, {"CDASHQUE": "What was the unit?", "CDASHDOM": ["DA"], "SDTMVAR": ["DAORRESU"], "CDASHVAR": "RETAMT_DAORRESU"}, {"CDASHQUE": "What is the visit name?", "CDASHDOM": ["DA", "DD", "EG", "IE", "LB", "MI", "PC", "PE", "SC", "RP", "SR", "VS"], "SDTMVAR": ["VISIT"], "CDASHVAR": "VISIT"}, {"CDASHQUE": "What [is/was] the date of the visit?", "CDASHDOM": ["DA", "DD", "EG", "IE", "LB", "MI", "PC", "PE", "SC", "RP", "SR", "VS"], "SDTMVAR": [], "CDASHVAR": "VISDAT"}, {"CDASHQUE": "What is the test group identifier?", "CDASHDOM": ["DA"], "SDTMVAR": ["DAGRPID"], "CDASHVAR": "DAGRPID"}, {"CDASHQUE": "Was [DATEST] collected?", "CDASHDOM": ["DA"], "SDTMVAR": ["DASTAT"], "CDASHVAR": "[DATESTCD]_DAPERF"}, {"CDASHQUE": "What was the type of treatment for which drug accountability was assessed?", "CDASHDOM": ["DA"], "SDTMVAR": ["DACAT"], "CDASHVAR": "[DATESTCD]_DACAT"}, {"CDASHQUE": "What was the name of the treatment for which drug accountability was assessed?", "CDASHDOM": ["DA"], "SDTMVAR": ["DASCAT"], "CDASHVAR": "[DATESTCD]_DASCAT"}, {"CDASHQUE": "What is the [DATEST] treatment label identifier?", "CDASHDOM": ["DA"], "SDTMVAR": ["DAREFID"], "CDASHVAR": "[DATESTCD]_DAREFID"}, {"CDASHQUE": "What was the date [DATEST] drug accountability was assessed?", "CDASHDOM": ["DA"], "SDTMVAR": ["DADTC"], "CDASHVAR": "[DATESTCD]_DADAT"}, {"CDASHQUE": "What is the amount of the [DATEST] drug accountability assessment?", "CDASHDOM": ["DA"], "SDTMVAR": ["DAORRES", " DATEST", " DATESTCD"], "CDASHVAR": "[DATESTCD]_DAORRES"}, {"CDASHQUE": "What was the unit of the [DATEST] result?", "CDASHDOM": ["DA"], "SDTMVAR": ["DAORRESU"], "CDASHVAR": "[DATESTCD]_DAORRESU"}, {"CDASHQUE": "Was drug accountability performed?", "CDASHDOM": ["DA"], "SDTMVAR": ["DASTAT"], "CDASHVAR": "DAPERF"}, {"CDASHQUE": "What was the type of treatment for which drug accountability was assessed?", "CDASHDOM": ["DA"], "SDTMVAR": ["DACAT"], "CDASHVAR": "DACAT"}, {"CDASHQUE": "What was the name of the treatment for which drug accountability was assessed?", "CDASHDOM": ["DA"], "SDTMVAR": ["DASCAT"], "CDASHVAR": "DASCAT"}, {"CDASHQUE": "What was the treatment label identifier?", "CDASHDOM": ["DA"], "SDTMVAR": ["DAREFID"], "CDASHVAR": "DAREFID"}, {"CDASHQUE": "What was the drug accountability being assessed?", "CDASHDOM": ["DA"], "SDTMVAR": ["DATEST", " DATESTCD"], "CDASHVAR": "DATEST"}, {"CDASHQUE": "What is the result of the drug accountability assessment?", "CDASHDOM": ["DA"], "SDTMVAR": ["DAORRES"], "CDASHVAR": "DAORRES"}, {"CDASHQUE": "What was the unit?", "CDASHDOM": ["DA"], "SDTMVAR": ["DAORRESU"], "CDASHVAR": "DAORRESU"}, {"CDASHQUE": "What is the primary cause of death?", "CDASHDOM": ["DD"], "SDTMVAR": ["DDORRES", " DDTEST", " DDTESTCD", ""], "CDASHVAR": "PRCDTH_DDORRES"}, {"CDASHQUE": "What is the secondary cause of death?", "CDASHDOM": ["DD"], "SDTMVAR": ["DDORRES", " DDTEST", " DDTESTCD", ""], "CDASHVAR": "SECDTH_DDORRES"}, {"CDASHQUE": "What is the location of death?", "CDASHDOM": ["DD"], "SDTMVAR": ["DDORRES", " DDTEST", " DDTESTCD", ""], "CDASHVAR": "LOCDTH_DDORRES"}, {"CDASHQUE": "What is the category of the death detail assessment?", "CDASHDOM": ["DD"], "SDTMVAR": ["DDCAT"], "CDASHVAR": "DDCAT"}, {"CDASHQUE": "What is the subcategory of the death detail assessment?", "CDASHDOM": ["DD"], "SDTMVAR": ["DDSCAT"], "CDASHVAR": "DDSCAT"}, {"CDASHQUE": "Were any death detail assessments collected?", "CDASHDOM": ["DD"], "SDTMVAR": [], "CDASHVAR": "DDYN"}, {"CDASHQUE": "What was the date [DDTESTCD] assessment was collected?", "CDASHDOM": ["DD"], "SDTMVAR": ["DDDTC"], "CDASHVAR": "[DDTESTCD]_DDDAT"}, {"CDASHQUE": "What was the death detail assessment identifier?", "CDASHDOM": ["DD"], "SDTMVAR": ["DDSPID"], "CDASHVAR": "DDSPID"}, {"CDASHQUE": "What was the death detail assessment result?", "CDASHDOM": ["DD"], "SDTMVAR": ["DDORRES", " DDTEST", " DDTESTCD", ""], "CDASHVAR": "DDTESTCD_DDORRES"}, {"CDASHQUE": "Who provided the death detail assessment information?", "CDASHDOM": ["DD"], "SDTMVAR": ["DDEVAL"], "CDASHVAR": "DDEVAL"}, {"CDASHQUE": "What was the date death detail assessments were collected?", "CDASHDOM": ["DD"], "SDTMVAR": ["DDDTC"], "CDASHVAR": "DDDAT"}, {"CDASHQUE": "What was the death detail assessment test name?", "CDASHDOM": ["DD"], "SDTMVAR": ["DDTEST", " DDTESTCD"], "CDASHVAR": "DDTEST"}, {"CDASHQUE": "What was the result of the death detail assessment?", "CDASHDOM": ["DD"], "SDTMVAR": ["DDORRES"], "CDASHVAR": "DDORRES"}, {"CDASHQUE": "What was the category of the ECG finding?", "CDASHDOM": ["EG"], "SDTMVAR": ["EGCAT"], "CDASHVAR": "EGCAT"}, {"CDASHQUE": "What was the subcategory of the ECG finding?", "CDASHDOM": ["EG"], "SDTMVAR": ["EGSCAT"], "CDASHVAR": "EGSCAT"}, {"CDASHQUE": "Was the ECG performed?", "CDASHDOM": ["EG"], "SDTMVAR": ["EGSTAT"], "CDASHVAR": "EGPERF"}, {"CDASHQUE": "What was the (ECG) [reference identifier/accession number]?", "CDASHDOM": ["EG"], "SDTMVAR": ["EGREFID"], "CDASHVAR": "EGREFID"}, {"CDASHQUE": "What was the method used for the ECG?", "CDASHDOM": ["EG"], "SDTMVAR": ["EGMETHOD"], "CDASHVAR": "EGMETHOD"}, {"CDASHQUE": "What was the method used to measure ECG?", "CDASHDOM": ["EG"], "SDTMVAR": ["EGMETHOD"], "CDASHVAR": "EGMETHOD"}, {"CDASHQUE": "What was the position of the subject during the ECG measurement?", "CDASHDOM": ["EG"], "SDTMVAR": ["EGPOS"], "CDASHVAR": "EGPOS"}, {"CDASHQUE": "What was the position of the subject during ECG measurement?", "CDASHDOM": ["EG"], "SDTMVAR": ["EGPOS"], "CDASHVAR": "EGPOS"}, {"CDASHQUE": "What was the date of the ECG?", "CDASHDOM": ["EG"], "SDTMVAR": ["EGDTC"], "CDASHVAR": "EGDAT"}, {"CDASHQUE": "What was the ECG date?", "CDASHDOM": ["EG"], "SDTMVAR": ["EGDTC"], "CDASHVAR": "EGDAT"}, {"CDASHQUE": "What was date of the ECG?", "CDASHDOM": ["EG"], "SDTMVAR": ["EGDTC"], "CDASHVAR": "EGDAT"}, {"CDASHQUE": "What was the planned time point of the ECG measurement?", "CDASHDOM": ["EG"], "SDTMVAR": ["EGTPT"], "CDASHVAR": "EGTPT"}, {"CDASHQUE": "What was the time the ECG was collected?", "CDASHDOM": ["EG"], "SDTMVAR": ["EGDTC"], "CDASHVAR": "EGTIM"}, {"CDASHQUE": "Who provided the information?; Who was the evaluator?", "CDASHDOM": ["EG"], "SDTMVAR": ["EGEVAL"], "CDASHVAR": "EGEVAL"}, {"CDASHQUE": "What was the interpretation of the ECG?", "CDASHDOM": ["EG"], "SDTMVAR": ["EGORRES"], "CDASHVAR": "INTP_EGORRES"}, {"CDASHQUE": "Was the ECG clinically significant?", "CDASHDOM": ["EG"], "SDTMVAR": ["QVAL"], "CDASHVAR": "EGCLSIG"}, {"CDASHQUE": "What was the identifier for the medical history event that was reported as a clinically significant ECG finding?", "CDASHDOM": ["EG"], "SDTMVAR": [], "CDASHVAR": "EGMHNO"}, {"CDASHQUE": "What was the identifier for the adverse event(s) that was reported as a clinically significant ECG finding?", "CDASHDOM": ["EG"], "SDTMVAR": [], "CDASHVAR": "EGAENO"}, {"CDASHQUE": "What was the ECG test name?", "CDASHDOM": ["EG"], "SDTMVAR": ["EGTEST", " EGTESTCD"], "CDASHVAR": "EGTEST"}, {"CDASHQUE": "What was the result of the ECG?", "CDASHDOM": ["EG"], "SDTMVAR": ["EGORRES"], "CDASHVAR": "EGORRES"}, {"CDASHQUE": "What was the unit of the ECG results?", "CDASHDOM": ["EG"], "SDTMVAR": ["EGORRESU"], "CDASHVAR": "EGORRESU"}, {"CDASHQUE": "Were all eligibility criteria met?", "CDASHDOM": ["IE"], "SDTMVAR": [], "CDASHVAR": "IEYN"}, {"CDASHQUE": "What was the date the eligibility criteria assessment was performed?", "CDASHDOM": ["IE"], "SDTMVAR": ["IEDTC"], "CDASHVAR": "IEDAT"}, {"CDASHQUE": "What was the category of the criterion?", "CDASHDOM": ["IE"], "SDTMVAR": ["IECAT"], "CDASHVAR": "IECAT"}, {"CDASHQUE": "What was the subcategory of the criterion?", "CDASHDOM": ["IE"], "SDTMVAR": ["IESCAT"], "CDASHVAR": "IESCAT"}, {"CDASHQUE": "What was the identifier of the inclusion criterion the subject did not meet or the exclusion criterion the subject met ?", "CDASHDOM": ["IE"], "SDTMVAR": ["IETESTCD"], "CDASHVAR": "IETESTCD"}, {"CDASHQUE": "What was the description of the inclusion criterion the subject did not meet or the exclusion criterion the subject met?", "CDASHDOM": ["IE"], "SDTMVAR": ["IETEST"], "CDASHVAR": "IETEST"}, {"CDASHQUE": "What is the result?", "CDASHDOM": ["IE"], "SDTMVAR": ["IEORRES"], "CDASHVAR": "IEORRES"}, {"CDASHQUE": "Was the sample collected?; Was the lab performed?", "CDASHDOM": ["LB"], "SDTMVAR": ["LBSTAT"], "CDASHVAR": "LBPERF"}, {"CDASHQUE": "Was the lab performed?", "CDASHDOM": ["LB"], "SDTMVAR": ["LBSTAT"], "CDASHVAR": "LBPERF"}, {"CDASHQUE": "What was the date of the lab specimen collection?", "CDASHDOM": ["LB"], "SDTMVAR": ["LBDTC"], "CDASHVAR": "LBDAT"}, {"CDASHQUE": "What was the date of lab specimen collection?", "CDASHDOM": ["LB"], "SDTMVAR": ["LBDTC"], "CDASHVAR": "LBDAT"}, {"CDASHQUE": "What was the (start) time of the lab specimen collection?", "CDASHDOM": ["LB"], "SDTMVAR": ["LBDTC"], "CDASHVAR": "LBTIM"}, {"CDASHQUE": "What was the name of the lab panel?", "CDASHDOM": ["LB"], "SDTMVAR": ["LBCAT"], "CDASHVAR": "LBCAT"}, {"CDASHQUE": "What was name of the lab panel?", "CDASHDOM": ["LB"], "SDTMVAR": ["LBCAT"], "CDASHVAR": "LBCAT"}, {"CDASHQUE": "What was name of the lab sub-panel?", "CDASHDOM": ["LB"], "SDTMVAR": ["LBSCAT"], "CDASHVAR": "LBSCAT"}, {"CDASHQUE": "What was the planned time point of the lab?", "CDASHDOM": ["LB"], "SDTMVAR": ["LBTPT"], "CDASHVAR": "LBTPT"}, {"CDASHQUE": "Were the protocol-defined testing conditions met?", "CDASHDOM": ["LB"], "SDTMVAR": ["QVAL"], "CDASHVAR": "LBCOND"}, {"CDASHQUE": "Was the subject fasting?", "CDASHDOM": ["LB"], "SDTMVAR": ["LBFAST"], "CDASHVAR": "LBFAST"}, {"CDASHQUE": "What was the (laboratory test) [reference identifier/accession number]?", "CDASHDOM": ["LB"], "SDTMVAR": ["LBREFID"], "CDASHVAR": "LBREFID"}, {"CDASHQUE": "What was the lab test name?", "CDASHDOM": ["LB"], "SDTMVAR": ["LBTEST", " LBTESTCD"], "CDASHVAR": "LBTEST"}, {"CDASHQUE": "What is the lab test name?", "CDASHDOM": ["LB"], "SDTMVAR": ["LBTEST", " LBTESTCD"], "CDASHVAR": "LBTEST"}, {"CDASHQUE": "What was the result of the test?", "CDASHDOM": ["LB"], "SDTMVAR": ["LBORRES"], "CDASHVAR": "LBORRES"}, {"CDASHQUE": "What was the result of the lab test?", "CDASHDOM": ["LB"], "SDTMVAR": ["LBORRES"], "CDASHVAR": "LBORRES"}, {"CDASHQUE": "Was this result clinically significant?", "CDASHDOM": ["LB"], "SDTMVAR": ["QVAL"], "CDASHVAR": "LBCLSIG"}, {"CDASHQUE": "What was the method used for the test or examination?", "CDASHDOM": ["LB"], "SDTMVAR": ["LBMETHOD"], "CDASHVAR": "LBMETHOD"}, {"CDASHQUE": "What was the method used for the lab test or examination?", "CDASHDOM": ["LB"], "SDTMVAR": ["LBMETHOD"], "CDASHVAR": "LBMETHOD"}, {"CDASHQUE": "What was the condition of the specimen?", "CDASHDOM": ["LB"], "SDTMVAR": ["LBSPCCND"], "CDASHVAR": "LBSPCCND"}, {"CDASHQUE": "What was the unit of the lab result?", "CDASHDOM": ["LB"], "SDTMVAR": ["LBORRESU"], "CDASHVAR": "LBORRESU"}, {"CDASHQUE": "What is the Toxicity Grade?", "CDASHDOM": ["LB"], "SDTMVAR": ["LBTOXGR"], "CDASHVAR": "LBTOXGR"}, {"CDASHQUE": "What is the description of the toxicity?", "CDASHDOM": ["LB"], "SDTMVAR": ["LBTOX"], "CDASHVAR": "LBTOX"}, {"CDASHQUE": "What was the lower limit of the reference range for this lab test?", "CDASHDOM": ["LB"], "SDTMVAR": ["LBORNRLO"], "CDASHVAR": "LBORNRLO"}, {"CDASHQUE": "What was the high limit of the reference range for this lab test?", "CDASHDOM": ["LB"], "SDTMVAR": ["LBORNRHI"], "CDASHVAR": "LBORNRHI"}, {"CDASHQUE": "How [did/do] the reported values compare within the [reference/normal/expected] range?", "CDASHDOM": ["LB"], "SDTMVAR": ["LBNRIND"], "CDASHVAR": "LBNRIND"}, {"CDASHQUE": "What was the name of the laboratory used?", "CDASHDOM": ["LB"], "SDTMVAR": ["LBNAM"], "CDASHVAR": "LBNAM"}, {"CDASHQUE": "Was the microscopic examination performed?", "CDASHDOM": ["MI"], "SDTMVAR": ["MISTAT"], "CDASHVAR": "MIPERF"}, {"CDASHQUE": "What was the (microscopic test) [reference identifier/accession number]?", "CDASHDOM": ["MI"], "SDTMVAR": ["MIREFID"], "CDASHVAR": "MIREFID"}, {"CDASHQUE": "What was the specimen collection date?", "CDASHDOM": ["MI"], "SDTMVAR": ["MIDTC"], "CDASHVAR": "MIDAT"}, {"CDASHQUE": "What was the date of the specimen collection?", "CDASHDOM": ["MI"], "SDTMVAR": ["MIDTC"], "CDASHVAR": "MIDAT"}, {"CDASHQUE": "What was the (start) time of the specimen collection?", "CDASHDOM": ["MI"], "SDTMVAR": ["MIDTC"], "CDASHVAR": "MITIM"}, {"CDASHQUE": "What was the category of the microscopic finding?", "CDASHDOM": ["MI"], "SDTMVAR": ["MICAT"], "CDASHVAR": "MICAT"}, {"CDASHQUE": "What was the subcategory of the microscopic finding?", "CDASHDOM": ["MI"], "SDTMVAR": ["MISCAT"], "CDASHVAR": "MISCAT"}, {"CDASHQUE": "What is the specimen material type?", "CDASHDOM": ["MI"], "SDTMVAR": ["MISPEC"], "CDASHVAR": "MISPEC"}, {"CDASHQUE": "What was the condition of the specimen?", "CDASHDOM": ["MI"], "SDTMVAR": ["MISPCCND"], "CDASHVAR": "MISPCCND"}, {"CDASHQUE": "What was the anatomical location were the specimen was collection?", "CDASHDOM": ["MI"], "SDTMVAR": ["MILOC"], "CDASHVAR": "MILOC"}, {"CDASHQUE": "What was the side of the anatomical location of the specimen collection?", "CDASHDOM": ["MI"], "SDTMVAR": ["MILAT"], "CDASHVAR": "MILAT"}, {"CDASHQUE": "What was the directionality of the anatomical location of the specimen collection?", "CDASHDOM": ["MI"], "SDTMVAR": ["MIDIR"], "CDASHVAR": "MIDIR"}, {"CDASHQUE": "What is the microscopic test identifier?", "CDASHDOM": ["MI"], "SDTMVAR": ["MISPID"], "CDASHVAR": "MISPID"}, {"CDASHQUE": "What was the microscopic examination test name?", "CDASHDOM": ["MI"], "SDTMVAR": ["MITEST", " MITESTCD"], "CDASHVAR": "MITEST"}, {"CDASHQUE": "What was the microscopic examination detail?", "CDASHDOM": ["MI"], "SDTMVAR": ["MITSTDTL"], "CDASHVAR": "MITSTDTL"}, {"CDASHQUE": "What was the result of the examination?", "CDASHDOM": ["MI"], "SDTMVAR": ["MIORRES"], "CDASHVAR": "MIORRES"}, {"CDASHQUE": "What was the unit of the result?", "CDASHDOM": ["MI"], "SDTMVAR": ["MIORRESU"], "CDASHVAR": "MIORRESU"}, {"CDASHQUE": "Was the result clinically significant?", "CDASHDOM": ["MI"], "SDTMVAR": ["QVAL"], "CDASHVAR": "MICLSIG"}, {"CDASHQUE": "What was the result category?", "CDASHDOM": ["MI"], "SDTMVAR": ["MIRESCAT"], "CDASHVAR": "MIRESCAT"}, {"CDASHQUE": "What was the name of the vendor used?", "CDASHDOM": ["MI"], "SDTMVAR": ["MINAM"], "CDASHVAR": "MINAM"}, {"CDASHQUE": "What was the method used for the test or examination?", "CDASHDOM": ["MI"], "SDTMVAR": ["MIMETHOD"], "CDASHVAR": "MIMETHOD"}, {"CDASHQUE": "Who was the evaluator?", "CDASHDOM": ["MI"], "SDTMVAR": ["MIEVAL"], "CDASHVAR": "MIEVAL"}, {"CDASHQUE": "Were PK samples collected?", "CDASHDOM": ["PC"], "SDTMVAR": ["PCSTAT"], "CDASHVAR": "PCPERF"}, {"CDASHQUE": "Indicate if the PK sample was not done.", "CDASHDOM": ["PC"], "SDTMVAR": ["PCSTAT"], "CDASHVAR": "PCSTAT"}, {"CDASHQUE": "What was the reason the PK sample was not collected?", "CDASHDOM": ["PC"], "SDTMVAR": ["PCREASND"], "CDASHVAR": "PCREASND"}, {"CDASHQUE": "What was the date of the PK sample collection?", "CDASHDOM": ["PC"], "SDTMVAR": ["PCDTC"], "CDASHVAR": "PCDAT"}, {"CDASHQUE": "Check if the specimen/sample was collected on the same date as the (last/previous specimen/sample) (collected/collection ended)?", "CDASHDOM": ["PC"], "SDTMVAR": [], "CDASHVAR": "PCDATFL"}, {"CDASHQUE": "What was the time of the PK sample collection?", "CDASHDOM": ["PC"], "SDTMVAR": ["PCDTC"], "CDASHVAR": "PCTIM"}, {"CDASHQUE": "What was the (start) time of the PK sample collection?", "CDASHDOM": ["PC"], "SDTMVAR": ["PCDTC"], "CDASHVAR": "PCTIM"}, {"CDASHQUE": "What was the planned time point of the PK sample collection?", "CDASHDOM": ["PC"], "SDTMVAR": ["PCTPT"], "CDASHVAR": "PCTPT"}, {"CDASHQUE": "Was the subject fasting?", "CDASHDOM": ["PC"], "SDTMVAR": ["PCFAST"], "CDASHVAR": "PCFAST"}, {"CDASHQUE": "Were the protocol-defined testing conditions met?", "CDASHDOM": ["PC"], "SDTMVAR": ["QVAL"], "CDASHVAR": "PCCOND"}, {"CDASHQUE": "What was the (PK) [reference identifier/accession number]?", "CDASHDOM": ["PC"], "SDTMVAR": ["PCREFID"], "CDASHVAR": "PCREFID"}, {"CDASHQUE": "What was the specimen material type?", "CDASHDOM": ["PC"], "SDTMVAR": ["PCSPEC"], "CDASHVAR": "PCSPEC"}, {"CDASHQUE": "What was the test name?", "CDASHDOM": ["PC"], "SDTMVAR": ["PCTEST", " PCTESTCD"], "CDASHVAR": "PCTEST"}, {"CDASHQUE": "What was the result of the test?", "CDASHDOM": ["PC"], "SDTMVAR": ["PCORRES"], "CDASHVAR": "PCORRES"}, {"CDASHQUE": "What was the unit of the result?", "CDASHDOM": ["PC"], "SDTMVAR": ["PCORRESU"], "CDASHVAR": "PCORRESU"}, {"CDASHQUE": "What was the end date of the specimen collection?", "CDASHDOM": ["PC"], "SDTMVAR": ["PCENDTC"], "CDASHVAR": "PCENDAT"}, {"CDASHQUE": "What was the specimen collection end time?", "CDASHDOM": ["PC"], "SDTMVAR": ["PCENDTC"], "CDASHVAR": "PCENTIM"}, {"CDASHQUE": "Was the physical examination performed?", "CDASHDOM": ["PE"], "SDTMVAR": ["PESTAT"], "CDASHVAR": "PEPERF"}, {"CDASHQUE": "What was category of the physical examination?", "CDASHDOM": ["PE"], "SDTMVAR": ["PECAT"], "CDASHVAR": "PECAT"}, {"CDASHQUE": "What was subcategory of the physical examination?", "CDASHDOM": ["PE"], "SDTMVAR": ["PESCAT"], "CDASHVAR": "PESCAT"}, {"CDASHQUE": "What was the date of the physical examination?", "CDASHDOM": ["PE"], "SDTMVAR": ["PEDTC"], "CDASHVAR": "PEDAT"}, {"CDASHQUE": "What was the time of the physical examination?", "CDASHDOM": ["PE"], "SDTMVAR": ["PEDTC"], "CDASHVAR": "PETIM"}, {"CDASHQUE": "What is the physical examination identifier?", "CDASHDOM": ["PE"], "SDTMVAR": ["PESPID"], "CDASHVAR": "PESPID"}, {"CDASHQUE": "What was the body system examined?", "CDASHDOM": ["PE"], "SDTMVAR": ["PETEST", " PETESTCD"], "CDASHVAR": "PETEST"}, {"CDASHQUE": "Were the results normal, abnormal or not done?", "CDASHDOM": ["PE"], "SDTMVAR": ["PEORRES"], "CDASHVAR": "PERES"}, {"CDASHQUE": "If the result was abnormal, what were the findings?", "CDASHDOM": ["PE"], "SDTMVAR": ["PEORRES"], "CDASHVAR": "PEDESC"}, {"CDASHQUE": "Was the physical examination result clinically significant?", "CDASHDOM": ["PE"], "SDTMVAR": ["QVAL"], "CDASHVAR": "PECLSIG"}, {"CDASHQUE": "Who was the evaluator?", "CDASHDOM": ["PE"], "SDTMVAR": ["PEEVAL"], "CDASHVAR": "PEEVAL"}, {"CDASHQUE": "What is the reason that data was not collected?", "CDASHDOM": ["PE"], "SDTMVAR": ["PEREASND"], "CDASHVAR": "PEREASND"}, {"CDASHQUE": "What is/was the [body system/ organ system]?", "CDASHDOM": ["PE"], "SDTMVAR": ["PEBODSYS"], "CDASHVAR": "PEBODSYS"}, {"CDASHQUE": "", "CDASHDOM": ["PE"], "SDTMVAR": ["PEMODIFY"], "CDASHVAR": "PEMODIFY"}, {"CDASHQUE": "What was the anatomical location of the body system examined or the finding?", "CDASHDOM": ["PE"], "SDTMVAR": ["PELOC"], "CDASHVAR": "PELOC"}, {"CDASHQUE": "What was the side of the anatomical location of the body system examined or the finding?", "CDASHDOM": ["PE"], "SDTMVAR": ["PELAT"], "CDASHVAR": "PELAT"}, {"CDASHQUE": "What was the directionality of the anatomical location of the of the body system examined or the finding?", "CDASHDOM": ["PE"], "SDTMVAR": ["PEDIR"], "CDASHVAR": "PEDIR"}, {"CDASHQUE": "What was the portion or totality of the anatomical location of the body system examined or the finding?", "CDASHDOM": ["PE"], "SDTMVAR": ["PEPORTOT"], "CDASHVAR": "PEPORTOT"}, {"CDASHQUE": "What was the method used for the test or examination?", "CDASHDOM": ["PE"], "SDTMVAR": ["PEMETHOD"], "CDASHVAR": "PEMETHOD"}, {"CDASHQUE": "What is the subject's marital status?", "CDASHDOM": ["SC"], "SDTMVAR": ["SCORRES", "SCTEST", "SCTESTCD"], "CDASHVAR": "MARISTAT_SCORRES"}, {"CDASHQUE": "What is the subject's national origin?", "CDASHDOM": ["SC"], "SDTMVAR": ["SCORRES", "SCTEST", "SCTESTCD"], "CDASHVAR": "NATORIG_SCORRES"}, {"CDASHQUE": "What is the subject's education level?", "CDASHDOM": ["SC"], "SDTMVAR": ["SCORRES", "SCTEST", "SCTESTCD"], "CDASHVAR": "EDLEVEL_SCORRES"}, {"CDASHQUE": "What is the subject's skin type?", "CDASHDOM": ["SC"], "SDTMVAR": ["SCORRES", "SCTEST", "SCTESTCD"], "CDASHVAR": "SKINTYP_SCORRES"}, {"CDASHQUE": "What was the category of the subject characteristics??", "CDASHDOM": ["SC"], "SDTMVAR": ["SCCAT"], "CDASHVAR": "[SCTESTCD]_SCCAT"}, {"CDASHQUE": "What was the subcategory of the subject characteristics?", "CDASHDOM": ["SC"], "SDTMVAR": ["SCSCAT"], "CDASHVAR": "[SCTESTCD]_SCSCAT"}, {"CDASHQUE": "Were subject characteristics collected for [SCTESTCD]?", "CDASHDOM": ["SC"], "SDTMVAR": ["SCSTAT"], "CDASHVAR": "[SCTESTCD]_SCPERF"}, {"CDASHQUE": "What is the test group identifier?", "CDASHDOM": ["SC"], "SDTMVAR": ["SCGRPID"], "CDASHVAR": "SCGRPID"}, {"CDASHQUE": "What is the subject's [SCTEST]?", "CDASHDOM": ["SC"], "SDTMVAR": ["SCORRES", "SCTEST", "SCTESTCD"], "CDASHVAR": "[SCTESTCD]_SCORRES"}, {"CDASHQUE": "What was the category of the subject characteristics?", "CDASHDOM": ["SC"], "SDTMVAR": ["SCCAT"], "CDASHVAR": "SCCAT"}, {"CDASHQUE": "What was the subcategory of the subject characteristics?", "CDASHDOM": ["SC"], "SDTMVAR": ["SCSCAT"], "CDASHVAR": "SCSCAT"}, {"CDASHQUE": "Were subject characteristics collected?", "CDASHDOM": ["SC"], "SDTMVAR": ["SCSTAT"], "CDASHVAR": "SCPERF"}, {"CDASHQUE": "What is the subject characteristics identifier?", "CDASHDOM": ["SC"], "SDTMVAR": ["SCSPID"], "CDASHVAR": "SCSPID"}, {"CDASHQUE": "What was the date the subject characteristic(s) was collected?", "CDASHDOM": ["SC"], "SDTMVAR": ["SCDTC"], "CDASHVAR": "SCDAT"}, {"CDASHQUE": "What is the Subject Characteristics name?", "CDASHDOM": ["SC"], "SDTMVAR": ["SCTEST", "SCTESTCD"], "CDASHVAR": "SCTEST"}, {"CDASHQUE": "What is the subject's characteristic?", "CDASHDOM": ["SC"], "SDTMVAR": ["SCORRES"], "CDASHVAR": "SCORRES"}, {"CDASHQUE": "What was the category of the reproductive system?", "CDASHDOM": ["RP"], "SDTMVAR": ["RPCAT"], "CDASHVAR": "RPCAT"}, {"CDASHQUE": "What was the subcategory of the reproductive system?", "CDASHDOM": ["RP"], "SDTMVAR": ["RPSCAT"], "CDASHVAR": "RPSCAT"}, {"CDASHQUE": "Were there any reproductive system findings?", "CDASHDOM": ["RP"], "SDTMVAR": [], "CDASHVAR": "RPYN"}, {"CDASHQUE": "What is the reproductive identifier?", "CDASHDOM": ["RP"], "SDTMVAR": ["RPSPID"], "CDASHVAR": "RPSPID"}, {"CDASHQUE": "What is the reproductive finding name?", "CDASHDOM": ["RP"], "SDTMVAR": ["RPTEST", " RPTESTCD"], "CDASHVAR": "RPTEST"}, {"CDASHQUE": "What was the result for the reproductive system question?", "CDASHDOM": ["RP"], "SDTMVAR": ["RPORRES"], "CDASHVAR": "RPORRES"}, {"CDASHQUE": "What was the unit of the result?", "CDASHDOM": ["RP"], "SDTMVAR": ["RPORRESU"], "CDASHVAR": "RPORRESU"}, {"CDASHQUE": "What was the date the reproductive system question was collected?", "CDASHDOM": ["RP"], "SDTMVAR": ["RPDTC"], "CDASHVAR": "RPDAT"}, {"CDASHQUE": "What was the reason the reproductive system test was not collected?", "CDASHDOM": ["RP"], "SDTMVAR": ["RPREASND"], "CDASHVAR": "RPREASND"}, {"CDASHQUE": "What was the result of the flare size measurement?", "CDASHDOM": ["SR"], "SDTMVAR": ["SRORRES", "SRTEST", "SRTESTCD"], "CDASHVAR": "FLARESZ_SRORRES"}, {"CDASHQUE": "What was the unit of the flare size measurement?", "CDASHDOM": ["SR"], "SDTMVAR": ["SRORRESU"], "CDASHVAR": "FLARESZ_SRORRESU"}, {"CDASHQUE": "What was the result of the flare longest diameter measurement?", "CDASHDOM": ["SR"], "SDTMVAR": ["SRORRES", " SRTEST", " SRTESTCD"], "CDASHVAR": "FLRLDIAM_SRORRES"}, {"CDASHQUE": "What was the unit of the flare longest diameter measurement?", "CDASHDOM": ["SR"], "SDTMVAR": ["SRORRESU"], "CDASHVAR": "FLRLDIM_SRORRESU"}, {"CDASHQUE": "What was the result of the flare mean diameter measurement?", "CDASHDOM": ["SR"], "SDTMVAR": ["SRORRES", " SRTEST", "SRTESTCD"], "CDASHVAR": "FLRMDIAM_SRORRES"}, {"CDASHQUE": "What was the unit of the flare mean diameter measurement?", "CDASHDOM": ["SR"], "SDTMVAR": ["SRORRESU"], "CDASHVAR": "FLRMDIM_SRORRESU"}, {"CDASHQUE": "What was the result of the induration diameter measurement?", "CDASHDOM": ["SR"], "SDTMVAR": ["SRORRES", "SRTEST", " SRTESTCD"], "CDASHVAR": "IDRLDIAM_SRORRES"}, {"CDASHQUE": "What was the unit of the induration diameter measurement?", "CDASHDOM": ["SR"], "SDTMVAR": ["SRORRESU"], "CDASHVAR": "IDRLDIAM_SRORRESU"}, {"CDASHQUE": "What was the result of the wheal size measurement?", "CDASHDOM": ["SR"], "SDTMVAR": ["SRORRES", " SRTEST", " SRTESTCD"], "CDASHVAR": "WHEALSZ_SRORRES"}, {"CDASHQUE": "What was the unit of the wheal size measurement?", "CDASHDOM": ["SR"], "SDTMVAR": ["SRORRESU"], "CDASHVAR": "WHEALSZ_SRORRESU"}, {"CDASHQUE": "What was the result of the wheal longest diameter measurement?", "CDASHDOM": ["SR"], "SDTMVAR": ["SRORRES", " SRTEST", "SRTESTCD"], "CDASHVAR": "WHLLDIAM_SRORRES"}, {"CDASHQUE": "What was the unit for the wheal longest diameter measurement?", "CDASHDOM": ["SR"], "SDTMVAR": ["SRORRESU"], "CDASHVAR": "WHLLDIM_SRORRESU"}, {"CDASHQUE": "What was the result of the wheal mean diameter measurement?", "CDASHDOM": ["SR"], "SDTMVAR": ["SRORRES", "SRTEST", "SRTESTCD"], "CDASHVAR": "WHLMDIAM_SRORRES"}, {"CDASHQUE": "What was the unit of the wheal mean diameter measurement?", "CDASHDOM": ["SR"], "SDTMVAR": ["SRORRESU"], "CDASHVAR": "WHLMDIM_SRORRESU"}, {"CDASHQUE": "Was a skin response test performed?", "CDASHDOM": ["SR"], "SDTMVAR": ["SRSTAT"], "CDASHVAR": "SRPERF"}, {"CDASHQUE": "What was the reason the test was not done?", "CDASHDOM": ["SR"], "SDTMVAR": ["SRREASND"], "CDASHVAR": "SRREASND"}, {"CDASHQUE": "What was the category of the skin response?", "CDASHDOM": ["SR"], "SDTMVAR": ["SRCAT"], "CDASHVAR": "SRCAT"}, {"CDASHQUE": "What was the subcategory of the skin response?", "CDASHDOM": ["SR"], "SDTMVAR": ["SRSCAT"], "CDASHVAR": "SRSCAT"}, {"CDASHQUE": "What is the skin response identifier?", "CDASHDOM": ["SR"], "SDTMVAR": ["SRSPID"], "CDASHVAR": "SRSPID"}, {"CDASHQUE": "What intervention was performed to elicit the skin response?", "CDASHDOM": ["SR"], "SDTMVAR": ["SROBJ"], "CDASHVAR": "SROBJ"}, {"CDASHQUE": "What was the date of the [intervention] performed to elicit the skin response?", "CDASHDOM": ["SR"], "SDTMVAR": ["SRRFTDTC"], "CDASHVAR": "SRRFTDAT"}, {"CDASHQUE": "What was the time of the [intervention] performed to elicit the skin response?", "CDASHDOM": ["SR"], "SDTMVAR": ["SRRFTDTC"], "CDASHVAR": "SRRFTTIM"}, {"CDASHQUE": "What was the anatomical location of the skin response measurement?", "CDASHDOM": ["SR"], "SDTMVAR": ["SRLOC"], "CDASHVAR": "SRLOC"}, {"CDASHQUE": "What was the side of the anatomical location of the skin response measurement?", "CDASHDOM": ["SR"], "SDTMVAR": ["SRLAT"], "CDASHVAR": "SRLAT"}, {"CDASHQUE": "What was the skin response test name?", "CDASHDOM": ["SR"], "SDTMVAR": ["SRTEST", "SRTESTCD"], "CDASHVAR": "SRTEST"}, {"CDASHQUE": "What was the planned time point for skin response measurement?", "CDASHDOM": ["SR"], "SDTMVAR": ["SRTPT"], "CDASHVAR": "SRTPT"}, {"CDASHQUE": "What was the date of the skin response measurement?", "CDASHDOM": ["SR"], "SDTMVAR": ["SRDTC"], "CDASHVAR": "SRDAT"}, {"CDASHQUE": "What was the time of the skin response measurement?", "CDASHDOM": ["SR"], "SDTMVAR": ["SRDTC"], "CDASHVAR": "SRTIM"}, {"CDASHQUE": "What was the directionality of the anatomical location of the skin response measurement?", "CDASHDOM": ["SR"], "SDTMVAR": ["SRDIR"], "CDASHVAR": "SRDIR"}, {"CDASHQUE": "Who was the evaluator?", "CDASHDOM": ["SR"], "SDTMVAR": ["SREVAL"], "CDASHVAR": "SREVAL"}, {"CDASHQUE": "What was the identifier of the evaluator providing the skin response information?", "CDASHDOM": ["SR"], "SDTMVAR": ["SREVALID"], "CDASHVAR": "SREVALID"}, {"CDASHQUE": "What was the result of the skin response measurement?", "CDASHDOM": ["SR"], "SDTMVAR": ["SRORRES"], "CDASHVAR": "SRORRES"}, {"CDASHQUE": "What was the unit of the skin response measurement?", "CDASHDOM": ["SR"], "SDTMVAR": ["SRORRESU"], "CDASHVAR": "SRORRESU"}, {"CDASHQUE": "What was the unit of the measurement?", "CDASHDOM": ["SR"], "SDTMVAR": ["SRORRESU"], "CDASHVAR": "SRORRESU"}, {"CDASHQUE": "How [did/do] the reported values compare within the [reference/normal/expected] range?", "CDASHDOM": ["SR"], "SDTMVAR": ["SRNRIND"], "CDASHVAR": "SRNRIND"}, {"CDASHQUE": "Was the result clinically significant?", "CDASHDOM": ["SR"], "SDTMVAR": ["QVAL"], "CDASHVAR": "SRCLSIG"}, {"CDASHQUE": "Was a skin response test performed?", "CDASHDOM": ["SR"], "SDTMVAR": ["SRSTAT"], "CDASHVAR": "[SRTESTCD]_SRPERF"}, {"CDASHQUE": "What was the reason the test was not done?", "CDASHDOM": ["SR"], "SDTMVAR": ["SRREASND"], "CDASHVAR": "[SRTESTCD]_SRREASND"}, {"CDASHQUE": "What is the [SRTEST] group identifier?", "CDASHDOM": ["SR"], "SDTMVAR": ["SRGRPID"], "CDASHVAR": "SRGRPID"}, {"CDASHQUE": "What intervention was administered to evaluate the skin response?", "CDASHDOM": ["SR"], "SDTMVAR": ["SROBJ"], "CDASHVAR": "[SRTESTCD]_SROBJ"}, {"CDASHQUE": "What was the date the [intervention] was administered?", "CDASHDOM": ["SR"], "SDTMVAR": ["SRRFTDTC"], "CDASHVAR": "[SRTESTCD]_SRRFTDAT"}, {"CDASHQUE": "What was the time the [intervention] was administered?", "CDASHDOM": ["SR"], "SDTMVAR": ["SRRFTDTC"], "CDASHVAR": "[SRTESTCD]_SRRFTTIM"}, {"CDASHQUE": "What was the anatomical location of the skin response measurement?", "CDASHDOM": ["SR"], "SDTMVAR": ["SRLOC"], "CDASHVAR": "[SRTESTCD]_SRLOC"}, {"CDASHQUE": "What was the side of the anatomical location of the skin response measurement?", "CDASHDOM": ["SR"], "SDTMVAR": ["SRLAT"], "CDASHVAR": "[SRTESTCD]_SRLAT"}, {"CDASHQUE": "What was the planned time point for skin response measurement?", "CDASHDOM": ["SR"], "SDTMVAR": ["SRTPT"], "CDASHVAR": "[SRTESTCD]_SRTPT"}, {"CDASHQUE": "What was the date the skin response was assessed?", "CDASHDOM": ["SR"], "SDTMVAR": ["SRDTC"], "CDASHVAR": "[SRTESTCD]_SRDAT"}, {"CDASHQUE": "What was the time of the skin response measurement?", "CDASHDOM": ["SR"], "SDTMVAR": ["SRDTC"], "CDASHVAR": "[SRTESTCD]_SRTIM"}, {"CDASHQUE": "What was the directionality of the anatomical location of the skin response measurement?", "CDASHDOM": ["SR"], "SDTMVAR": ["SRDIR"], "CDASHVAR": "[SRTESTCD]_SRDIR"}, {"CDASHQUE": "Who provided the skin response measurement information?", "CDASHDOM": ["SR"], "SDTMVAR": ["SREVAL"], "CDASHVAR": "[SRTESTCD]_SREVAL"}, {"CDASHQUE": "What was the identifier of the evaluator providing the skin response measurement information?", "CDASHDOM": ["SR"], "SDTMVAR": ["SREVALID"], "CDASHVAR": "[SRTESTCD]_SREVALID"}, {"CDASHQUE": "What was the result of the measurement?", "CDASHDOM": ["SR"], "SDTMVAR": ["SRORRES", " SRTEST", " SRTESTCD"], "CDASHVAR": "[SRTESTCD]_SRORRES"}, {"CDASHQUE": "How [did/do] the reported values compare within the [reference/normal/expected] range?", "CDASHDOM": ["SR"], "SDTMVAR": ["SRNRIND"], "CDASHVAR": "[SRTESTCD]_SRNRIND"}, {"CDASHQUE": "Was the result clinically significant?", "CDASHDOM": ["SR"], "SDTMVAR": ["QVAL"], "CDASHVAR": "[SRTESTCD]_SRCLSIG"}, {"CDASHQUE": "What was the result of the temperature measurement?", "CDASHDOM": ["VS"], "SDTMVAR": ["VSORRES", " VSTEST", " VSTESTCD"], "CDASHVAR": "TEMP_VSORRES"}, {"CDASHQUE": "What was the unit of the temperature measurement?", "CDASHDOM": ["VS"], "SDTMVAR": ["VSORRESU"], "CDASHVAR": "TEMP_VSORRESU"}, {"CDASHQUE": "Was the temperature result clinically significant?", "CDASHDOM": ["VS"], "SDTMVAR": ["QVAL"], "CDASHVAR": "TEMP_VSCLSIG"}, {"CDASHQUE": "What was the result of the respiratory rate measurement?", "CDASHDOM": ["VS"], "SDTMVAR": ["VSORRES", " VSTEST", " VSTESTCD"], "CDASHVAR": "RESP_VSORRES"}, {"CDASHQUE": "What was the unit of the respiratory rate measurement?", "CDASHDOM": ["VS"], "SDTMVAR": ["VSORRESU"], "CDASHVAR": "RESP_VSORRESU"}, {"CDASHQUE": "Was the respiratory rate result clinically significant?", "CDASHDOM": ["VS"], "SDTMVAR": ["QVAL"], "CDASHVAR": "RESP_VSCLSIG"}, {"CDASHQUE": "What was the result of the systolic blood pressure measurement?", "CDASHDOM": ["VS"], "SDTMVAR": ["VSORRES", " VSTEST", " VSTESTCD"], "CDASHVAR": "SYSBP_VSORRES"}, {"CDASHQUE": "What was the unit of the systolic blood pressure measurement?", "CDASHDOM": ["VS"], "SDTMVAR": ["VSORRESU"], "CDASHVAR": "SYSBP_VSORRESU"}, {"CDASHQUE": "Was the systolic blood pressure result clinically significant?", "CDASHDOM": ["VS"], "SDTMVAR": ["QVAL"], "CDASHVAR": "SYSBP_VSCLSIG"}, {"CDASHQUE": "What was the position of the subject during the systolic blood pressure measurement?", "CDASHDOM": ["VS"], "SDTMVAR": ["VSPOS"], "CDASHVAR": "SYSBP_VSPOS"}, {"CDASHQUE": "What was the anatomical location where the systolic blood pressure measurement was taken?", "CDASHDOM": ["VS"], "SDTMVAR": ["VSLOC"], "CDASHVAR": "SYSBP_VSLOC"}, {"CDASHQUE": "What was the side of the anatomical location of the systolic blood pressure measurement?", "CDASHDOM": ["VS"], "SDTMVAR": ["VSLAT"], "CDASHVAR": "SYSBP_VSLAT"}, {"CDASHQUE": "What was the result of the diastolic blood pressure measurement?", "CDASHDOM": ["VS"], "SDTMVAR": ["VSORRES", " VSTEST", " VSTESTCD"], "CDASHVAR": "DIABP_VSORRES"}, {"CDASHQUE": "What was the unit of the diastolic blood pressure measurement?", "CDASHDOM": ["VS"], "SDTMVAR": ["VSORRESU"], "CDASHVAR": "DIAPU_VSORRESU"}, {"CDASHQUE": "Was the diastolic blood pressure result clinically significant?", "CDASHDOM": ["VS"], "SDTMVAR": ["QVAL"], "CDASHVAR": "DIABP_VSCLSIG"}, {"CDASHQUE": "What was the position of the subject during the diastolic blood pressure measurement?", "CDASHDOM": ["VS"], "SDTMVAR": ["VSPOS"], "CDASHVAR": "DIABP_VSPOS"}, {"CDASHQUE": "What was the anatomical location where the diastolic blood pressure measurement was taken?", "CDASHDOM": ["VS"], "SDTMVAR": ["VSLOC"], "CDASHVAR": "DIABP_VSLOC"}, {"CDASHQUE": "What was the side of the anatomical location of the diastolic blood pressure measurement?", "CDASHDOM": ["VS"], "SDTMVAR": ["VSLAT"], "CDASHVAR": "DIABP_VSLAT"}, {"CDASHQUE": "What was the result of the heart rate measurement?", "CDASHDOM": ["VS"], "SDTMVAR": ["VSORRES", " VSTEST", " VSTESTCD"], "CDASHVAR": "HR_VSORRES"}, {"CDASHQUE": "What was the unit of the heart rate measurement?", "CDASHDOM": ["VS"], "SDTMVAR": ["VSORRESU"], "CDASHVAR": "HR_VSORRESU"}, {"CDASHQUE": "Was the heart rate result clinically significant?", "CDASHDOM": ["VS"], "SDTMVAR": ["QVAL"], "CDASHVAR": "HR_VSCLSIG"}, {"CDASHQUE": "What was the position of the subject during the heart rate measurement?", "CDASHDOM": ["VS"], "SDTMVAR": ["VSPOS"], "CDASHVAR": "HR_VSPOS"}, {"CDASHQUE": "What was the anatomical location where the heart rate measurement was taken?", "CDASHDOM": ["VS"], "SDTMVAR": ["VSLOC"], "CDASHVAR": "HR_VSLOC"}, {"CDASHQUE": "What was the side of the anatomical location of the heart rate measurement?", "CDASHDOM": ["VS"], "SDTMVAR": ["VSLAT"], "CDASHVAR": "HR_VSLAT"}, {"CDASHQUE": "Were [vital signs/[VSTEST] performed?", "CDASHDOM": ["VS"], "SDTMVAR": ["VSSTAT"], "CDASHVAR": "[VSTESTCD]_VSPERF"}, {"CDASHQUE": "What was the date of the measurement(s)?", "CDASHDOM": ["VS"], "SDTMVAR": ["VSDTC"], "CDASHVAR": "[VSTESTCD]_VSDAT"}, {"CDASHQUE": "What was the time of the measurement(s)?", "CDASHDOM": ["VS"], "SDTMVAR": ["VSDTC"], "CDASHVAR": "[VSTESTCD]_VSTIM"}, {"CDASHQUE": "What was the category of the vital signs?", "CDASHDOM": ["VS"], "SDTMVAR": ["VSCAT"], "CDASHVAR": "VSCAT"}, {"CDASHQUE": "What was the subcategory of the vital signs?", "CDASHDOM": ["VS"], "SDTMVAR": ["VSSCAT"], "CDASHVAR": "VSSCAT"}, {"CDASHQUE": "What is the vital sign group identifier ?", "CDASHDOM": ["VS"], "SDTMVAR": ["VSGRPID"], "CDASHVAR": "VSGRPID"}, {"CDASHQUE": "What is the planned time point for this vital signs measurement?", "CDASHDOM": ["VS"], "SDTMVAR": ["VSTPT"], "CDASHVAR": "[VSTESTCD]_VSTPT"}, {"CDASHQUE": "Indicate if the [VSTEST] measurement was not done", "CDASHDOM": ["VS"], "SDTMVAR": ["VSSTAT"], "CDASHVAR": "[VSTESTCD]_VSSTAT"}, {"CDASHQUE": "What was the result of the [VSTEST] measurement?", "CDASHDOM": ["VS"], "SDTMVAR": ["VSORRES", " VSTEST", " VSTESTCD", ""], "CDASHVAR": "[VSTESTCD]_VSORRES"}, {"CDASHQUE": "What was the unit of the [VSTEST] measurement?", "CDASHDOM": ["VS"], "SDTMVAR": ["VSORRESU"], "CDASHVAR": "[VSTESTCD]_VSORRESU"}, {"CDASHQUE": "Was the [VSTEST] result clinically significant?", "CDASHDOM": ["VS"], "SDTMVAR": ["QVAL"], "CDASHVAR": "[VSTESTCD]_VSCLSIG"}, {"CDASHQUE": "What was the position of the subject during the [VSTEST] measurement?", "CDASHDOM": ["VS"], "SDTMVAR": ["VSPOS"], "CDASHVAR": "[VSTESTCD]_VSPOS"}, {"CDASHQUE": "What was the anatomical location where the [VSTEST] measurement was taken?", "CDASHDOM": ["VS"], "SDTMVAR": ["VSLOC"], "CDASHVAR": "[VSTESTCD]_VSLOC"}, {"CDASHQUE": "What was the side of the anatomical location of the [VSTEST] measurement?", "CDASHDOM": ["VS"], "SDTMVAR": ["VSLAT"], "CDASHVAR": "[VSTESTCD]_VSLAT"}, {"CDASHQUE": "Were vital signs performed?", "CDASHDOM": ["VS"], "SDTMVAR": ["VSSTAT"], "CDASHVAR": "VSPERF"}, {"CDASHQUE": "What was the date of the vital signs measurement?", "CDASHDOM": ["VS"], "SDTMVAR": ["VSDTC"], "CDASHVAR": "VSDAT"}, {"CDASHQUE": "What was the time of the vital signs measurement?", "CDASHDOM": ["VS"], "SDTMVAR": ["VSDTC"], "CDASHVAR": "VSTIM"}, {"CDASHQUE": "What is the vital signs identifier?", "CDASHDOM": ["VS"], "SDTMVAR": ["VSSPID"], "CDASHVAR": "VSSPID"}, {"CDASHQUE": "What is the planned time point for this vital signs measurement?", "CDASHDOM": ["VS"], "SDTMVAR": ["VSTPT"], "CDASHVAR": "VSTPT"}, {"CDASHQUE": "What was the repetition number within the time point for this measurement?", "CDASHDOM": ["VS"], "SDTMVAR": ["QVAL"], "CDASHVAR": "VSREPNUM"}, {"CDASHQUE": "What is the vital sign test name?", "CDASHDOM": ["VS"], "SDTMVAR": ["VSTEST", " VSTESTCD"], "CDASHVAR": "VSTEST"}, {"CDASHQUE": "Indicate if the vital signs measurement was not done", "CDASHDOM": ["VS"], "SDTMVAR": ["VSSTAT"], "CDASHVAR": "VSSTAT"}, {"CDASHQUE": "What was the result of the measurement?", "CDASHDOM": ["VS"], "SDTMVAR": ["VSORRES"], "CDASHVAR": "VSORRES"}, {"CDASHQUE": "What was the unit of the measurement?", "CDASHDOM": ["VS"], "SDTMVAR": ["VSORRESU"], "CDASHVAR": "VSORRESU"}, {"CDASHQUE": "Was the result clinically significant?", "CDASHDOM": ["VS"], "SDTMVAR": ["QVAL"], "CDASHVAR": "VSCLSIG"}, {"CDASHQUE": "What was the anatomical location where the measurement was taken?", "CDASHDOM": ["VS"], "SDTMVAR": ["VSLOC"], "CDASHVAR": "VSLOC"}, {"CDASHQUE": "What was the position of the subject during the measurement?", "CDASHDOM": ["VS"], "SDTMVAR": ["VSPOS"], "CDASHVAR": "VSPOS"}, {"CDASHQUE": "What was the directionality of the anatomical location of the measurement?", "CDASHDOM": ["VS"], "SDTMVAR": ["VSDIR"], "CDASHVAR": "VSDIR"}, {"CDASHQUE": "What was the side of the anatomical location of the vital signs measurement?", "CDASHDOM": ["VS"], "SDTMVAR": ["VSLAT"], "CDASHVAR": "VSLAT"}, {"CDASHQUE": "[Sponsored-defined phrase]", "CDASHDOM": ["FA"], "SDTMVAR": ["FAOBJ"], "CDASHVAR": "FAOBJ"}, {"CDASHQUE": "Has the subject had any [Findings topic(s)] (after/before [study specific time frame])?; [Was/Were] (there) any [Findings topic(s)] (reported) (after/before [study specific time frame])?; Were all eligibility criteria met?", "CDASHDOM": ["FA"], "SDTMVAR": [], "CDASHVAR": "FAYN"}, {"CDASHQUE": "[Were any/Was the] [FATEST/topic] ([measurement(s)/test(s)/examination(s)/specimen(s)/sample(s))] [performed/collected]?", "CDASHDOM": ["FA"], "SDTMVAR": ["FASTAT"], "CDASHVAR": "FAPERF"}, {"CDASHQUE": "What [is/was] the name (of the [measurement/test/examination])?", "CDASHDOM": ["FA"], "SDTMVAR": ["FATEST", "FATESTCD"], "CDASHVAR": "FATEST"}, {"CDASHQUE": "What [is/was] the [measurement/test/examination] detail name?", "CDASHDOM": ["FA"], "SDTMVAR": ["FATSTDTL"], "CDASHVAR": "FATSTDTL"}, {"CDASHQUE": "What [is/was] the [type/category/name] (of the [measurement/test/examination/specimen/sample])?", "CDASHDOM": ["FA"], "SDTMVAR": ["FACAT"], "CDASHVAR": "FACAT"}, {"CDASHQUE": "What [is/was] the [type/subcategory/name] (of the [measurement/test/examination/specimen/sample])?", "CDASHDOM": ["FA"], "SDTMVAR": ["FASCAT"], "CDASHVAR": "FASCAT"}, {"CDASHQUE": "In what position was the subject during the [measurement/ test/examination/specimen collection/sample collection]? ; What was the position of the subject (during the [measurement/test/examination/specimen collection/sample collection])?", "CDASHDOM": ["FA"], "SDTMVAR": ["FAPOS"], "CDASHVAR": "FAPOS"}, {"CDASHQUE": "What [is/was] the [result/amount/(subject's) characteristic] (of the [measurement/test/examination/question/assessment])?", "CDASHDOM": ["FA"], "SDTMVAR": ["FAORRES"], "CDASHVAR": "FAORRES"}, {"CDASHQUE": "What [is/was] the unit (of the [measurement/test/examination])?", "CDASHDOM": ["FA"], "SDTMVAR": ["FAORRESU"], "CDASHVAR": "FAORRESU"}, {"CDASHQUE": "What [is/was] the lower limit of the reference range (for the [measurement/test/examination])?", "CDASHDOM": ["FA"], "SDTMVAR": ["FAORNRLO"], "CDASHVAR": "FAORNRLO"}, {"CDASHQUE": "What [is/was] the upper limit of the reference range (for the [measurement/test/examination])?", "CDASHDOM": ["FA"], "SDTMVAR": ["FAORNRHI"], "CDASHVAR": "FAORNRHI"}, {"CDASHQUE": "How [did/do] the reported values compare within the [reference/normal/expected] range?", "CDASHDOM": ["FA"], "SDTMVAR": ["FANRIND"], "CDASHVAR": "FANRIND"}, {"CDASHQUE": "Was the [--TEST ] not [completed/answered/done/assessed/evaluated ]?; Indicate if the( [--TEST] was) not [answered/assessed/done/evaluated/performed].", "CDASHDOM": ["FA"], "SDTMVAR": ["FASTAT"], "CDASHVAR": "FASTAT"}, {"CDASHQUE": "Was the [is/was] the reason that the [Findings topic/data/information/sponsor-defined phrase] was not [collected/answered/done/assessed/evaluated]?", "CDASHDOM": ["FA"], "SDTMVAR": ["FAREASND"], "CDASHVAR": "FAREASND"}, {"CDASHQUE": "What [is/was] the specimen type?", "CDASHDOM": ["FA"], "SDTMVAR": ["FASPEC"], "CDASHVAR": "FASPEC"}, {"CDASHQUE": "What [is/was] the condition of the specimen?", "CDASHDOM": ["FA"], "SDTMVAR": ["FASPCCND"], "CDASHVAR": "FASPCCND"}, {"CDASHQUE": "What [is/was] the anatomical location (of the [measurement/test/examination]) or What [is/was] the anatomical location where the [measurement/specimen] was taken/collected )?", "CDASHDOM": ["FA"], "SDTMVAR": ["FALOC"], "CDASHVAR": "FALOC"}, {"CDASHQUE": "What [ is/ was] the side (of the anatomical location of the [measurement/test/examination]) ?", "CDASHDOM": ["FA"], "SDTMVAR": ["FALAT"], "CDASHVAR": "FALAT"}, {"CDASHQUE": "What [is/was] the directionality (of the anatomical location of the [measurement/test/examination]) ?", "CDASHDOM": ["FA"], "SDTMVAR": ["FADIR"], "CDASHVAR": "FADIR"}, {"CDASHQUE": "What [is/was] the portion or totality (of the anatomical location of the [measurement/test/examination]) ?", "CDASHDOM": ["FA"], "SDTMVAR": ["FAPORTOT"], "CDASHVAR": "FAPORTOT"}, {"CDASHQUE": "What was the method (used for the [measurement/test/examination])?", "CDASHDOM": ["FA"], "SDTMVAR": ["FAMETHOD"], "CDASHVAR": "FAMETHOD"}, {"CDASHQUE": "What [is/was] the lead (used to measure [measurement/test/examination])?", "CDASHDOM": ["FA"], "SDTMVAR": ["FALEAD"], "CDASHVAR": "FALEAD"}, {"CDASHQUE": "[Is/Was] the subject fasting (prior to the [test being performed/sample being collected])?", "CDASHDOM": ["FA"], "SDTMVAR": ["FAFAST"], "CDASHVAR": "FAFAST"}, {"CDASHQUE": "Who provided the (sponsor-defined phrase) information?; Who was the evaluator?", "CDASHDOM": ["FA"], "SDTMVAR": ["FAEVAL"], "CDASHVAR": "FAEVAL"}, {"CDASHQUE": "What [is/was] the identifier of the [evaluator name/reporter name] (providing the-sponsor-defined phrase- information)?", "CDASHDOM": ["FA"], "SDTMVAR": ["FAEVALID"], "CDASHVAR": "FAEVALID"}, {"CDASHQUE": "[Is/Was] the ([measurement/test/examination]) result clinically significant?", "CDASHDOM": ["FA"], "SDTMVAR": ["QVAL"], "CDASHVAR": "FACLSIG"}], "NAME": "i0424690", "VERSION": "1.0.0", "SANOFISDTM": [{"SDTMDOM": ["DM"], "SDTMVAR": "ACTARM"}, {"SDTMDOM": ["DM"], "SDTMVAR": "ACTARMCD"}, {"SDTMDOM": ["SUPPAE"], "SDTMVAR": "AEACCMED"}, {"SDTMDOM": ["SUPPAE"], "SDTMVAR": "AEACHCP"}, {"SDTMDOM": ["SUPPAE"], "SDTMVAR": "AEACHOS"}, {"SDTMDOM": ["AE", "APAE"], "SDTMVAR": "AEACN"}, {"SDTMDOM": ["SUPPAE", "SQAPAE"], "SDTMVAR": "AEACN1"}, {"SDTMDOM": ["SUPPAE", "SQAPAE"], "SDTMVAR": "AEACN2"}, {"SDTMDOM": ["SUPPAE", "SQAPAE"], "SDTMVAR": "AEACN3"}, {"SDTMDOM": ["SUPPAE", "SQAPAE"], "SDTMVAR": "AEACN4"}, {"SDTMDOM": ["SUPPAE"], "SDTMVAR": "AEACNC"}, {"SDTMDOM": ["SUPPAE"], "SDTMVAR": "AEACNC1"}, {"SDTMDOM": ["SUPPAE"], "SDTMVAR": "AEACNC2"}, {"SDTMDOM": ["SUPPAE"], "SDTMVAR": "AEACNC3"}, {"SDTMDOM": ["SUPPAE"], "SDTMVAR": "AEACNC4"}, {"SDTMDOM": ["SUPPAE"], "SDTMVAR": "AEACNDT"}, {"SDTMDOM": ["SUPPAE"], "SDTMVAR": "AEACNNO"}, {"SDTMDOM": ["SUPPAE"], "SDTMVAR": "AEACNOSP"}, {"SDTMDOM": ["SUPPAE"], "SDTMVAR": "AEACNOT"}, {"SDTMDOM": ["SUPPAE"], "SDTMVAR": "AEACVACD"}, {"SDTMDOM": ["AE", "APAE"], "SDTMVAR": "AEBDSYCD"}, {"SDTMDOM": ["AE", "APAE"], "SDTMVAR": "AEBODSYS"}, {"SDTMDOM": ["AE", "APAE"], "SDTMVAR": "AECAT"}, {"SDTMDOM": ["AE"], "SDTMVAR": "AECONTRT"}, {"SDTMDOM": ["SUPPAE"], "SDTMVAR": "AECYCNAM"}, {"SDTMDOM": ["SUPPAE"], "SDTMVAR": "AECYCVID"}, {"SDTMDOM": ["AE", "APAE"], "SDTMVAR": "AEDECOD"}, {"SDTMDOM": ["SUPPAE", "SQAPAE"], "SDTMVAR": "AEDICTV"}, {"SDTMDOM": ["AE"], "SDTMVAR": "AEDIR"}, {"SDTMDOM": ["SUPPAE"], "SDTMVAR": "AEDIS"}, {"SDTMDOM": ["SUPPAE"], "SDTMVAR": "AEDLT"}, {"SDTMDOM": ["SUPPAE"], "SDTMVAR": "AEDTHDTC"}, {"SDTMDOM": ["SUPPAE"], "SDTMVAR": "AEELPTIM"}, {"SDTMDOM": ["AE", "APAE"], "SDTMVAR": "AEENDTC"}, {"SDTMDOM": ["AE", "APAE"], "SDTMVAR": "AEENDY"}, {"SDTMDOM": ["AE"], "SDTMVAR": "AEENRF"}, {"SDTMDOM": ["AE"], "SDTMVAR": "AEENRTPT"}, {"SDTMDOM": ["AE"], "SDTMVAR": "AEENTPT"}, {"SDTMDOM": ["AE", "APAE"], "SDTMVAR": "AEHLGT"}, {"SDTMDOM": ["AE", "APAE"], "SDTMVAR": "AEHLGTCD"}, {"SDTMDOM": ["AE", "APAE"], "SDTMVAR": "AEHLT"}, {"SDTMDOM": ["AE", "APAE"], "SDTMVAR": "AEHLTCD"}, {"SDTMDOM": ["SUPPAE"], "SDTMVAR": "AEIAR"}, {"SDTMDOM": ["SUPPAE"], "SDTMVAR": "AEIMM"}, {"SDTMDOM": ["SUPPAE", "SQAPAE"], "SDTMVAR": "AEISPID"}, {"SDTMDOM": ["AE"], "SDTMVAR": "AELAT"}, {"SDTMDOM": ["AE", "APAE"], "SDTMVAR": "AELLT"}, {"SDTMDOM": ["AE", "APAE"], "SDTMVAR": "AELLTCD"}, {"SDTMDOM": ["AE"], "SDTMVAR": "AELNKID"}, {"SDTMDOM": ["AE"], "SDTMVAR": "AELOC"}, {"SDTMDOM": ["SUPPAE"], "SDTMVAR": "AEMAAE"}, {"SDTMDOM": ["SUPPAE"], "SDTMVAR": "AEMEOI"}, {"SDTMDOM": ["SUPPAE"], "SDTMVAR": "AEMS"}, {"SDTMDOM": ["SUPPAE"], "SDTMVAR": "AEMSM"}, {"SDTMDOM": ["SUPPAE"], "SDTMVAR": "AEMSNM"}, {"SDTMDOM": ["SUPPAE"], "SDTMVAR": "AEMSU"}, {"SDTMDOM": ["AE"], "SDTMVAR": "AEOUT"}, {"SDTMDOM": ["SUPPAE", "SQAPAE"], "SDTMVAR": "AEOUTPRG"}, {"SDTMDOM": ["SUPPAE"], "SDTMVAR": "AEOVIMP"}, {"SDTMDOM": ["SUPPAE"], "SDTMVAR": "AEOVIMP2"}, {"SDTMDOM": ["SUPPAE"], "SDTMVAR": "AEOVIMP3"}, {"SDTMDOM": ["SUPPAE"], "SDTMVAR": "AEOVIMP4"}, {"SDTMDOM": ["SUPPAE"], "SDTMVAR": "AEOVNCM"}, {"SDTMDOM": ["SUPPAE"], "SDTMVAR": "AEOVNCMS"}, {"SDTMDOM": ["SUPPAE"], "SDTMVAR": "AEOVNIMP"}, {"SDTMDOM": ["SUPPAE"], "SDTMVAR": "AEOVOTCM"}, {"SDTMDOM": ["SUPPAE"], "SDTMVAR": "AEOVSYMP"}, {"SDTMDOM": ["SUPPAE", "SQAPAE"], "SDTMVAR": "AEPRAEYN"}, {"SDTMDOM": ["AE", "APAE"], "SDTMVAR": "AEPTCD"}, {"SDTMDOM": ["AE", "APAE"], "SDTMVAR": "AEREFID"}, {"SDTMDOM": ["AE", "APAE"], "SDTMVAR": "AEREL"}, {"SDTMDOM": ["SUPPAE", "SQAPAE"], "SDTMVAR": "AEREL1"}, {"SDTMDOM": ["SUPPAE", "SQAPAE"], "SDTMVAR": "AEREL2"}, {"SDTMDOM": ["SUPPAE", "SQAPAE"], "SDTMVAR": "AEREL3"}, {"SDTMDOM": ["SUPPAE", "SQAPAE"], "SDTMVAR": "AEREL4"}, {"SDTMDOM": ["SUPPAE", "SQAPAE"], "SDTMVAR": "AERELNS2"}, {"SDTMDOM": ["SUPPAE", "SQAPAE"], "SDTMVAR": "AERELNS3"}, {"SDTMDOM": ["SUPPAE", "SQAPAE"], "SDTMVAR": "AERELNS4"}, {"SDTMDOM": ["AE", "APAE"], "SDTMVAR": "AERELNST"}, {"SDTMDOM": ["SUPPAE"], "SDTMVAR": "AERELPR"}, {"SDTMDOM": ["AE"], "SDTMVAR": "AESCAT"}, {"SDTMDOM": ["AE"], "SDTMVAR": "AESCONG"}, {"SDTMDOM": ["AE"], "SDTMVAR": "AESDISAB"}, {"SDTMDOM": ["AE"], "SDTMVAR": "AESDTH"}, {"SDTMDOM": ["AE", "APAE"], "SDTMVAR": "AESEQ"}, {"SDTMDOM": ["SUPPAE"], "SDTMVAR": "AESEQUCM"}, {"SDTMDOM": ["AE"], "SDTMVAR": "AESER"}, {"SDTMDOM": ["SUPPAE"], "SDTMVAR": "AESERDTC"}, {"SDTMDOM": ["AE"], "SDTMVAR": "AESEV"}, {"SDTMDOM": ["SUPPAE"], "SDTMVAR": "AESEVMD"}, {"SDTMDOM": ["AE"], "SDTMVAR": "AESHOSP"}, {"SDTMDOM": ["SUPPAE"], "SDTMVAR": "AESIAR"}, {"SDTMDOM": ["SUPPAE"], "SDTMVAR": "AESIDEN"}, {"SDTMDOM": ["SUPPAE"], "SDTMVAR": "AESIIN"}, {"SDTMDOM": ["SUPPAE"], "SDTMVAR": "AESINV"}, {"SDTMDOM": ["AE"], "SDTMVAR": "AESLIFE"}, {"SDTMDOM": ["AE"], "SDTMVAR": "AESMIE"}, {"SDTMDOM": ["AE", "APAE"], "SDTMVAR": "AESOC"}, {"SDTMDOM": ["AE", "APAE"], "SDTMVAR": "AESOCCD"}, {"SDTMDOM": ["SUPPAE"], "SDTMVAR": "AESTABLE"}, {"SDTMDOM": ["AE", "APAE"], "SDTMVAR": "AESTDTC"}, {"SDTMDOM": ["AE", "APAE"], "SDTMVAR": "AESTDY"}, {"SDTMDOM": ["AE", "APAE"], "SDTMVAR": "AETERM"}, {"SDTMDOM": ["AE"], "SDTMVAR": "AETOXGR"}, {"SDTMDOM": ["SUPPAE"], "SDTMVAR": "AETOXGRV"}, {"SDTMDOM": ["SUPPAE"], "SDTMVAR": "AETRT"}, {"SDTMDOM": ["SUPPAE"], "SDTMVAR": "AETRTEM"}, {"SDTMDOM": ["AG"], "SDTMVAR": "AGCAT"}, {"SDTMDOM": ["DM"], "SDTMVAR": "AGE"}, {"SDTMDOM": ["AG"], "SDTMVAR": "AGELTM"}, {"SDTMDOM": ["DM"], "SDTMVAR": "AGEU"}, {"SDTMDOM": ["AG"], "SDTMVAR": "AGOCCUR"}, {"SDTMDOM": ["AG"], "SDTMVAR": "AGPRESP"}, {"SDTMDOM": ["AG"], "SDTMVAR": "AGROUTE"}, {"SDTMDOM": ["AG"], "SDTMVAR": "AGSCAT"}, {"SDTMDOM": ["AG"], "SDTMVAR": "AGSEQ"}, {"SDTMDOM": ["AG"], "SDTMVAR": "AGSPID"}, {"SDTMDOM": ["AG"], "SDTMVAR": "AGSTDTC"}, {"SDTMDOM": ["AG"], "SDTMVAR": "AGSTDY"}, {"SDTMDOM": ["AG"], "SDTMVAR": "AGTPT"}, {"SDTMDOM": ["AG"], "SDTMVAR": "AGTPTNUM"}, {"SDTMDOM": ["AG"], "SDTMVAR": "AGTPTREF"}, {"SDTMDOM": ["AG"], "SDTMVAR": "AGTRT"}, {"SDTMDOM": ["SUPPSV"], "SDTMVAR": "APERIOD"}, {"SDTMDOM": ["SUPPSV"], "SDTMVAR": "APERIODC"}, {"SDTMDOM": ["APAE", "APMH"], "SDTMVAR": "APID"}, {"SDTMDOM": ["DM", "TA", "TV"], "SDTMVAR": "ARM"}, {"SDTMDOM": ["DM", "TA", "TV"], "SDTMVAR": "ARMCD"}, {"SDTMDOM": ["DM"], "SDTMVAR": "BRTHDTC"}, {"SDTMDOM": ["CC", "CCLN"], "SDTMVAR": "CCBLFL"}, {"SDTMDOM": ["CC", "CCLN"], "SDTMVAR": "CCCAT"}, {"SDTMDOM": ["CC", "CCLN"], "SDTMVAR": "CCDRVFL"}, {"SDTMDOM": ["CC", "CCLN"], "SDTMVAR": "CCDTC"}, {"SDTMDOM": ["CC", "CCLN"], "SDTMVAR": "CCDY"}, {"SDTMDOM": ["CC", "CCLN"], "SDTMVAR": "CCELTM"}, {"SDTMDOM": ["CC", "CCLN"], "SDTMVAR": "CCEVAL"}, {"SDTMDOM": ["SUPPCC"], "SDTMVAR": "CCEVALGL"}, {"SDTMDOM": ["CC", "CCLN"], "SDTMVAR": "CCEVALID"}, {"SDTMDOM": ["CC", "CCLN"], "SDTMVAR": "CCEVINTX"}, {"SDTMDOM": ["CC", "CCLN"], "SDTMVAR": "CCEVLINT"}, {"SDTMDOM": ["CC", "CCLN"], "SDTMVAR": "CCGRPID"}, {"SDTMDOM": ["CC", "CCLN"], "SDTMVAR": "CCLNKGRP"}, {"SDTMDOM": ["CC", "CCLN"], "SDTMVAR": "CCLNKID"}, {"SDTMDOM": ["CC", "CCLN"], "SDTMVAR": "CCORRES"}, {"SDTMDOM": ["CC", "CCLN"], "SDTMVAR": "CCORRESU"}, {"SDTMDOM": ["CC", "CCLN"], "SDTMVAR": "CCREASND"}, {"SDTMDOM": ["CC", "CCLN"], "SDTMVAR": "CCRESCAT"}, {"SDTMDOM": ["CC", "CCLN"], "SDTMVAR": "CCRFTDTC"}, {"SDTMDOM": ["CC", "CCLN"], "SDTMVAR": "CCSCAT"}, {"SDTMDOM": ["CC", "CCLN"], "SDTMVAR": "CCSEQ"}, {"SDTMDOM": ["CC", "CCLN"], "SDTMVAR": "CCSPID"}, {"SDTMDOM": ["CC", "CCLN"], "SDTMVAR": "CCSTAT"}, {"SDTMDOM": ["CC", "CCLN"], "SDTMVAR": "CCSTRESC"}, {"SDTMDOM": ["CC", "CCLN"], "SDTMVAR": "CCSTRESN"}, {"SDTMDOM": ["CC", "CCLN"], "SDTMVAR": "CCSTRESU"}, {"SDTMDOM": ["CC", "CCLN"], "SDTMVAR": "CCTEST"}, {"SDTMDOM": ["CC", "CCLN"], "SDTMVAR": "CCTESTCD"}, {"SDTMDOM": ["CC", "CCLN"], "SDTMVAR": "CCTPT"}, {"SDTMDOM": ["CC", "CCLN"], "SDTMVAR": "CCTPTNUM"}, {"SDTMDOM": ["CC", "CCLN"], "SDTMVAR": "CCTPTREF"}, {"SDTMDOM": ["SUPPCE"], "SDTMVAR": "CEACCYN"}, {"SDTMDOM": ["CE"], "SDTMVAR": "CEBDSYCD"}, {"SDTMDOM": ["CE"], "SDTMVAR": "CEBODSYS"}, {"SDTMDOM": ["CE"], "SDTMVAR": "CECAT"}, {"SDTMDOM": ["SUPPCE"], "SDTMVAR": "CECM"}, {"SDTMDOM": ["SUPPCE"], "SDTMVAR": "CECVOUT"}, {"SDTMDOM": ["CE"], "SDTMVAR": "CEDECOD"}, {"SDTMDOM": ["SUPPCE"], "SDTMVAR": "CEDICTV"}, {"SDTMDOM": ["CE"], "SDTMVAR": "CEDIR"}, {"SDTMDOM": ["CE"], "SDTMVAR": "CEENDTC"}, {"SDTMDOM": ["CE"], "SDTMVAR": "CEENDY"}, {"SDTMDOM": ["SUPPCE"], "SDTMVAR": "CEEVTMNG"}, {"SDTMDOM": ["CE"], "SDTMVAR": "CEHLGT"}, {"SDTMDOM": ["CE"], "SDTMVAR": "CEHLGTCD"}, {"SDTMDOM": ["CE"], "SDTMVAR": "CEHLT"}, {"SDTMDOM": ["CE"], "SDTMVAR": "CEHLTCD"}, {"SDTMDOM": ["SUPPCE"], "SDTMVAR": "CEHPSER"}, {"SDTMDOM": ["SUPPCE"], "SDTMVAR": "CEHPTCON"}, {"SDTMDOM": ["SUPPCE"], "SDTMVAR": "CEHPTREP"}, {"SDTMDOM": ["CE"], "SDTMVAR": "CELAT"}, {"SDTMDOM": ["SUPPCE"], "SDTMVAR": "CELDUR"}, {"SDTMDOM": ["CE"], "SDTMVAR": "CELLT"}, {"SDTMDOM": ["CE"], "SDTMVAR": "CELLTCD"}, {"SDTMDOM": ["CE"], "SDTMVAR": "CELNKID"}, {"SDTMDOM": ["CE"], "SDTMVAR": "CELOC"}, {"SDTMDOM": ["CE"], "SDTMVAR": "CEOCCUR"}, {"SDTMDOM": ["SUPPCE"], "SDTMVAR": "CEOCCUR1"}, {"SDTMDOM": ["SUPPCE"], "SDTMVAR": "CEOCCUR2"}, {"SDTMDOM": ["CE"], "SDTMVAR": "CEPRESP"}, {"SDTMDOM": ["SUPPCE"], "SDTMVAR": "CEPRTRT"}, {"SDTMDOM": ["CE"], "SDTMVAR": "CEPTCD"}, {"SDTMDOM": ["CE"], "SDTMVAR": "CEREFID"}, {"SDTMDOM": ["SUPPCE"], "SDTMVAR": "CEREFID1"}, {"SDTMDOM": ["CE"], "SDTMVAR": "CESCAT"}, {"SDTMDOM": ["CE"], "SDTMVAR": "CESEQ"}, {"SDTMDOM": ["CE"], "SDTMVAR": "CESOC"}, {"SDTMDOM": ["CE"], "SDTMVAR": "CESOCCD"}, {"SDTMDOM": ["CE"], "SDTMVAR": "CESPID"}, {"SDTMDOM": ["CE"], "SDTMVAR": "CESTAT"}, {"SDTMDOM": ["CE"], "SDTMVAR": "CESTDTC"}, {"SDTMDOM": ["CE"], "SDTMVAR": "CESTDY"}, {"SDTMDOM": ["CE"], "SDTMVAR": "CESTRTPT"}, {"SDTMDOM": ["CE"], "SDTMVAR": "CESTTPT"}, {"SDTMDOM": ["CE"], "SDTMVAR": "CETERM"}, {"SDTMDOM": ["SUPPCE"], "SDTMVAR": "CEWHEOCC"}, {"SDTMDOM": ["CI"], "SDTMVAR": "CICAT"}, {"SDTMDOM": ["CI"], "SDTMVAR": "CIDTC"}, {"SDTMDOM": ["CI"], "SDTMVAR": "CIDY"}, {"SDTMDOM": ["CI"], "SDTMVAR": "CISEQ"}, {"SDTMDOM": ["CI"], "SDTMVAR": "CISPID"}, {"SDTMDOM": ["CI"], "SDTMVAR": "CITERM"}, {"SDTMDOM": ["SUPPCM"], "SDTMVAR": "CMACCYN"}, {"SDTMDOM": ["SUPPCM"], "SDTMVAR": "CMAENO"}, {"SDTMDOM": ["SUPPCM"], "SDTMVAR": "CMBR"}, {"SDTMDOM": ["CM"], "SDTMVAR": "CMCAT"}, {"SDTMDOM": ["SUPPCM"], "SDTMVAR": "CMCLSIG"}, {"SDTMDOM": ["SUPPCM"], "SDTMVAR": "CMCM"}, {"SDTMDOM": ["CM"], "SDTMVAR": "CMDECOD"}, {"SDTMDOM": ["SUPPCM"], "SDTMVAR": "CMDECOD1"}, {"SDTMDOM": ["SUPPCM"], "SDTMVAR": "CMDECOD2"}, {"SDTMDOM": ["SUPPCM"], "SDTMVAR": "CMDECOD3"}, {"SDTMDOM": ["SUPPCM"], "SDTMVAR": "CMDECOD4"}, {"SDTMDOM": ["SUPPCM"], "SDTMVAR": "CMDECOD5"}, {"SDTMDOM": ["SUPPCM"], "SDTMVAR": "CMDECOD6"}, {"SDTMDOM": ["SUPPCM"], "SDTMVAR": "CMDECOD7"}, {"SDTMDOM": ["SUPPCM"], "SDTMVAR": "CMDICTV"}, {"SDTMDOM": ["CM"], "SDTMVAR": "CMDOSE"}, {"SDTMDOM": ["CM"], "SDTMVAR": "CMDOSFRQ"}, {"SDTMDOM": ["CM"], "SDTMVAR": "CMDOSTOT"}, {"SDTMDOM": ["CM"], "SDTMVAR": "CMDOSTXT"}, {"SDTMDOM": ["CM"], "SDTMVAR": "CMDOSU"}, {"SDTMDOM": ["SUPPCM"], "SDTMVAR": "CMDSROTH"}, {"SDTMDOM": ["CM"], "SDTMVAR": "CMENDTC"}, {"SDTMDOM": ["CM"], "SDTMVAR": "CMENDY"}, {"SDTMDOM": ["CM"], "SDTMVAR": "CMENRF"}, {"SDTMDOM": ["CM"], "SDTMVAR": "CMENRTPT"}, {"SDTMDOM": ["CM"], "SDTMVAR": "CMENTPT"}, {"SDTMDOM": ["SUPPCM"], "SDTMVAR": "CMFRQOTH"}, {"SDTMDOM": ["CM"], "SDTMVAR": "CMGRPID"}, {"SDTMDOM": ["CM"], "SDTMVAR": "CMINDC"}, {"SDTMDOM": ["SUPPCM"], "SDTMVAR": "CMINGRD"}, {"SDTMDOM": ["CM"], "SDTMVAR": "CMLNKID"}, {"SDTMDOM": ["SUPPCM"], "SDTMVAR": "CMMHNO"}, {"SDTMDOM": ["CM"], "SDTMVAR": "CMOCCUR"}, {"SDTMDOM": ["SUPPCM"], "SDTMVAR": "CMOCCUR1"}, {"SDTMDOM": ["SUPPCM"], "SDTMVAR": "CMOCCUR2"}, {"SDTMDOM": ["SUPPCM"], "SDTMVAR": "CMOCCUR3"}, {"SDTMDOM": ["SUPPCM"], "SDTMVAR": "CMPREP"}, {"SDTMDOM": ["CM"], "SDTMVAR": "CMPRESP"}, {"SDTMDOM": ["SUPPCM"], "SDTMVAR": "CMPROHFL"}, {"SDTMDOM": ["SUPPCM"], "SDTMVAR": "CMPROPFL"}, {"SDTMDOM": ["SUPPCM"], "SDTMVAR": "CMREACSP"}, {"SDTMDOM": ["SUPPCM"], "SDTMVAR": "CMREACYN"}, {"SDTMDOM": ["CM"], "SDTMVAR": "CMREASND"}, {"SDTMDOM": ["SUPPCM"], "SDTMVAR": "CMRECNO"}, {"SDTMDOM": ["SUPPCM"], "SDTMVAR": "CMRESTRT"}, {"SDTMDOM": ["SUPPCM"], "SDTMVAR": "CMROTOTH"}, {"SDTMDOM": ["CM"], "SDTMVAR": "CMROUTE"}, {"SDTMDOM": ["SUPPCM"], "SDTMVAR": "CMROUTEC"}, {"SDTMDOM": ["SUPPCM"], "SDTMVAR": "CMRPDTC"}, {"SDTMDOM": ["SUPPCM"], "SDTMVAR": "CMRPDY"}, {"SDTMDOM": ["SUPPCM"], "SDTMVAR": "CMRSDISC"}, {"SDTMDOM": ["CM"], "SDTMVAR": "CMSCAT"}, {"SDTMDOM": ["CM"], "SDTMVAR": "CMSEQ"}, {"SDTMDOM": ["SUPPCM"], "SDTMVAR": "CMSEQ1"}, {"SDTMDOM": ["SUPPCM"], "SDTMVAR": "CMSEQ2"}, {"SDTMDOM": ["CM"], "SDTMVAR": "CMSPID"}, {"SDTMDOM": ["CM"], "SDTMVAR": "CMSTAT"}, {"SDTMDOM": ["CM"], "SDTMVAR": "CMSTDTC"}, {"SDTMDOM": ["CM"], "SDTMVAR": "CMSTDY"}, {"SDTMDOM": ["CM"], "SDTMVAR": "CMSTRF"}, {"SDTMDOM": ["CM"], "SDTMVAR": "CMSTRTPT"}, {"SDTMDOM": ["CM"], "SDTMVAR": "CMSTTPT"}, {"SDTMDOM": ["CM"], "SDTMVAR": "CMTPT"}, {"SDTMDOM": ["CM"], "SDTMVAR": "CMTRT"}, {"SDTMDOM": ["SUPPCM"], "SDTMVAR": "CMVACTYP"}, {"SDTMDOM": ["SUPPDM"], "SDTMVAR": "COHORT"}, {"SDTMDOM": ["SUPPDM"], "SDTMVAR": "COMPLT"}, {"SDTMDOM": ["CO"], "SDTMVAR": "COREF"}, {"SDTMDOM": ["CO"], "SDTMVAR": "COSEQ"}, {"SDTMDOM": ["CO"], "SDTMVAR": "COTPTREF"}, {"SDTMDOM": ["DM"], "SDTMVAR": "COUNTRY"}, {"SDTMDOM": ["CO"], "SDTMVAR": "COVAL"}, {"SDTMDOM": ["CV"], "SDTMVAR": "CVBLFL"}, {"SDTMDOM": ["CV"], "SDTMVAR": "CVCAT"}, {"SDTMDOM": ["CV"], "SDTMVAR": "CVDIR"}, {"SDTMDOM": ["CV"], "SDTMVAR": "CVDRVFL"}, {"SDTMDOM": ["CV"], "SDTMVAR": "CVDTC"}, {"SDTMDOM": ["CV"], "SDTMVAR": "CVDY"}, {"SDTMDOM": ["CV"], "SDTMVAR": "CVELTM"}, {"SDTMDOM": ["CV"], "SDTMVAR": "CVEVAL"}, {"SDTMDOM": ["CV"], "SDTMVAR": "CVGRPID"}, {"SDTMDOM": ["CV"], "SDTMVAR": "CVLAT"}, {"SDTMDOM": ["CV"], "SDTMVAR": "CVLOC"}, {"SDTMDOM": ["CV"], "SDTMVAR": "CVMETHOD"}, {"SDTMDOM": ["CV"], "SDTMVAR": "CVORRES"}, {"SDTMDOM": ["CV"], "SDTMVAR": "CVORRESU"}, {"SDTMDOM": ["CV"], "SDTMVAR": "CVPOS"}, {"SDTMDOM": ["CV"], "SDTMVAR": "CVREASND"}, {"SDTMDOM": ["CV"], "SDTMVAR": "CVREFID"}, {"SDTMDOM": ["CV"], "SDTMVAR": "CVRFTDTC"}, {"SDTMDOM": ["CV"], "SDTMVAR": "CVSCAT"}, {"SDTMDOM": ["CV"], "SDTMVAR": "CVSEQ"}, {"SDTMDOM": ["CV"], "SDTMVAR": "CVSPID"}, {"SDTMDOM": ["CV"], "SDTMVAR": "CVSTAT"}, {"SDTMDOM": ["CV"], "SDTMVAR": "CVSTRESC"}, {"SDTMDOM": ["CV"], "SDTMVAR": "CVSTRESN"}, {"SDTMDOM": ["CV"], "SDTMVAR": "CVSTRESU"}, {"SDTMDOM": ["CV"], "SDTMVAR": "CVTEST"}, {"SDTMDOM": ["CV"], "SDTMVAR": "CVTESTCD"}, {"SDTMDOM": ["CV"], "SDTMVAR": "CVTPT"}, {"SDTMDOM": ["CV"], "SDTMVAR": "CVTPTNUM"}, {"SDTMDOM": ["CV"], "SDTMVAR": "CVTPTREF"}, {"SDTMDOM": ["DA"], "SDTMVAR": "DACAT"}, {"SDTMDOM": ["DA"], "SDTMVAR": "DADTC"}, {"SDTMDOM": ["DA"], "SDTMVAR": "DADY"}, {"SDTMDOM": ["DA"], "SDTMVAR": "DAORRES"}, {"SDTMDOM": ["DA"], "SDTMVAR": "DAORRESU"}, {"SDTMDOM": ["DA"], "SDTMVAR": "DASCAT"}, {"SDTMDOM": ["DA"], "SDTMVAR": "DASEQ"}, {"SDTMDOM": ["DA"], "SDTMVAR": "DASTRESC"}, {"SDTMDOM": ["DA"], "SDTMVAR": "DASTRESN"}, {"SDTMDOM": ["DA"], "SDTMVAR": "DASTRESU"}, {"SDTMDOM": ["SUPPDA"], "SDTMVAR": "DATABTN"}, {"SDTMDOM": ["DA"], "SDTMVAR": "DATEST"}, {"SDTMDOM": ["DA"], "SDTMVAR": "DATESTCD"}, {"SDTMDOM": ["DD"], "SDTMVAR": "DDDTC"}, {"SDTMDOM": ["DD"], "SDTMVAR": "DDDY"}, {"SDTMDOM": ["DD"], "SDTMVAR": "DDORRES"}, {"SDTMDOM": ["DD"], "SDTMVAR": "DDSEQ"}, {"SDTMDOM": ["DD"], "SDTMVAR": "DDSTRESC"}, {"SDTMDOM": ["DD"], "SDTMVAR": "DDTEST"}, {"SDTMDOM": ["DD"], "SDTMVAR": "DDTESTCD"}, {"SDTMDOM": ["DE"], "SDTMVAR": "DEACNDEV"}, {"SDTMDOM": ["SUPPDE"], "SDTMVAR": "DEAENO"}, {"SDTMDOM": ["DE"], "SDTMVAR": "DECAT"}, {"SDTMDOM": ["DE"], "SDTMVAR": "DEDECOD"}, {"SDTMDOM": ["DE"], "SDTMVAR": "DEDTC"}, {"SDTMDOM": ["DE"], "SDTMVAR": "DEDY"}, {"SDTMDOM": ["DE"], "SDTMVAR": "DEENDTC"}, {"SDTMDOM": ["DE"], "SDTMVAR": "DEENDY"}, {"SDTMDOM": ["DE"], "SDTMVAR": "DEMODIFY"}, {"SDTMDOM": ["DE"], "SDTMVAR": "DEOCCUR"}, {"SDTMDOM": ["DE"], "SDTMVAR": "DEPRESP"}, {"SDTMDOM": ["DE"], "SDTMVAR": "DEREASND"}, {"SDTMDOM": ["SUPPDE"], "SDTMVAR": "DEREASOC"}, {"SDTMDOM": ["DE"], "SDTMVAR": "DESCAT"}, {"SDTMDOM": ["DE"], "SDTMVAR": "DESEQ"}, {"SDTMDOM": ["DE"], "SDTMVAR": "DESEV"}, {"SDTMDOM": ["DE"], "SDTMVAR": "DESPID"}, {"SDTMDOM": ["DE"], "SDTMVAR": "DESTAT"}, {"SDTMDOM": ["DE"], "SDTMVAR": "DESTDTC"}, {"SDTMDOM": ["DE"], "SDTMVAR": "DESTDY"}, {"SDTMDOM": ["DE"], "SDTMVAR": "DETERM"}, {"SDTMDOM": ["AE", "AG", "APAE", "APMH", "CC", "CCLN", "CE", "CI", "CM", "CO", "CV", "DA", "DD", "DE", "DM", "DS", "DV", "EC", "EG", "EX", "FA", "FAAE", "FACE", "FAPR", "FARS", "FT", "HO", "IE", "IS", "LB", "LBUS", "MH", "MI", "MK", "ML", "MO", "NV", "OE", "PC", "PE", "PF", "PP", "PR", "QS", "QSCQ", "QSEG", "QSKN", "QSPI", "QSMR", "RE", "RP", "RS", "SC", "SE", "SR", "SS", "SU", "SV", "TA", "TD", "TE", "TI", "TR", "TS", "TU", "TV", "VS"], "SDTMVAR": "DOMAIN"}, {"SDTMDOM": ["SUPPDS"], "SDTMVAR": "DSAENO"}, {"SDTMDOM": ["SUPPDS"], "SDTMVAR": "DSBKAEN2"}, {"SDTMDOM": ["SUPPDS"], "SDTMVAR": "DSBKAEN3"}, {"SDTMDOM": ["SUPPDS"], "SDTMVAR": "DSBKAEN4"}, {"SDTMDOM": ["SUPPDS"], "SDTMVAR": "DSBKAEN5"}, {"SDTMDOM": ["SUPPDS"], "SDTMVAR": "DSBKAENO"}, {"SDTMDOM": ["SUPPDS"], "SDTMVAR": "DSBKMETH"}, {"SDTMDOM": ["SUPPDS"], "SDTMVAR": "DSBKTRT"}, {"SDTMDOM": ["SUPPDS"], "SDTMVAR": "DSBKTRT2"}, {"SDTMDOM": ["SUPPDS"], "SDTMVAR": "DSBKTRT3"}, {"SDTMDOM": ["SUPPDS"], "SDTMVAR": "DSBKTRT4"}, {"SDTMDOM": ["SUPPDS"], "SDTMVAR": "DSBKTRT5"}, {"SDTMDOM": ["SUPPDS"], "SDTMVAR": "DSBKWHO"}, {"SDTMDOM": ["SUPPDS"], "SDTMVAR": "DSBKWHOO"}, {"SDTMDOM": ["DS"], "SDTMVAR": "DSCAT"}, {"SDTMDOM": ["SUPPDS"], "SDTMVAR": "DSCONT"}, {"SDTMDOM": ["DS"], "SDTMVAR": "DSDECOD"}, {"SDTMDOM": ["SUPPDM"], "SDTMVAR": "DSGROUP"}, {"SDTMDOM": ["SUPPDS"], "SDTMVAR": "DSMETHOD"}, {"SDTMDOM": ["SUPPDS"], "SDTMVAR": "DSMTHOTH"}, {"SDTMDOM": ["SUPPDS"], "SDTMVAR": "DSNEXT"}, {"SDTMDOM": ["SUPPDM"], "SDTMVAR": "DSPRSTUD"}, {"SDTMDOM": ["SUPPDM"], "SDTMVAR": "DSPRSUBJ"}, {"SDTMDOM": ["DS"], "SDTMVAR": "DSSCAT"}, {"SDTMDOM": ["DS"], "SDTMVAR": "DSSEQ"}, {"SDTMDOM": ["IVRS"], "SDTMVAR": "DSSTADTC"}, {"SDTMDOM": ["DS"], "SDTMVAR": "DSSTDTC"}, {"SDTMDOM": ["DS"], "SDTMVAR": "DSSTDY"}, {"SDTMDOM": ["DS"], "SDTMVAR": "DSTERM"}, {"SDTMDOM": ["SUPPDS"], "SDTMVAR": "DSTERM1"}, {"SDTMDOM": ["SUPPDS"], "SDTMVAR": "DSTERMCM"}, {"SDTMDOM": ["DM"], "SDTMVAR": "DTHDTC"}, {"SDTMDOM": ["DM"], "SDTMVAR": "DTHFL"}, {"SDTMDOM": ["DV", "LDV"], "SDTMVAR": "DVCAT"}, {"SDTMDOM": ["SUPPDV", "LDV"], "SDTMVAR": "DVCATCH"}, {"SDTMDOM": ["SUPPDV", "LDV"], "SDTMVAR": "DVCATINI"}, {"SDTMDOM": ["SUPPDV", "LDV"], "SDTMVAR": "DVCM"}, {"SDTMDOM": ["SUPPDV", "LDV"], "SDTMVAR": "DVCM1"}, {"SDTMDOM": ["SUPPDV", "LDV"], "SDTMVAR": "DVCM2"}, {"SDTMDOM": ["SUPPDV", "LDV"], "SDTMVAR": "DVCM3"}, {"SDTMDOM": ["DV", "LDV"], "SDTMVAR": "DVDECOD"}, {"SDTMDOM": ["DV", "LDV"], "SDTMVAR": "DVENDTC"}, {"SDTMDOM": ["DV", "LDV"], "SDTMVAR": "DVENDY"}, {"SDTMDOM": ["SUPPDV", "LDV"], "SDTMVAR": "DVIMPACT"}, {"SDTMDOM": ["DV", "LDV"], "SDTMVAR": "DVREFID"}, {"SDTMDOM": ["DV", "LDV"], "SDTMVAR": "DVSEQ"}, {"SDTMDOM": ["SUPPDV", "LDV"], "SDTMVAR": "DVSOURCE"}, {"SDTMDOM": ["DV", "LDV"], "SDTMVAR": "DVSPID"}, {"SDTMDOM": ["DV", "LDV"], "SDTMVAR": "DVSTDTC"}, {"SDTMDOM": ["DV", "LDV"], "SDTMVAR": "DVSTDY"}, {"SDTMDOM": ["DV", "LDV"], "SDTMVAR": "DVTERM"}, {"SDTMDOM": ["SUPPEC"], "SDTMVAR": "ECACCYN"}, {"SDTMDOM": ["EC"], "SDTMVAR": "ECADJ"}, {"SDTMDOM": ["SUPPEC"], "SDTMVAR": "ECBUT"}, {"SDTMDOM": ["SUPPEC"], "SDTMVAR": "ECBUTU"}, {"SDTMDOM": ["EC"], "SDTMVAR": "ECCAT"}, {"SDTMDOM": ["SUPPEC"], "SDTMVAR": "ECCM"}, {"SDTMDOM": ["EC"], "SDTMVAR": "ECDIR"}, {"SDTMDOM": ["SUPPEC"], "SDTMVAR": "ECDOSADJ"}, {"SDTMDOM": ["EC"], "SDTMVAR": "ECDOSE"}, {"SDTMDOM": ["EC"], "SDTMVAR": "ECDOSFRM"}, {"SDTMDOM": ["EC"], "SDTMVAR": "ECDOSFRQ"}, {"SDTMDOM": ["EC"], "SDTMVAR": "ECDOSRGM"}, {"SDTMDOM": ["EC"], "SDTMVAR": "ECDOSTXT"}, {"SDTMDOM": ["EC"], "SDTMVAR": "ECDOSU"}, {"SDTMDOM": ["EC"], "SDTMVAR": "ECELTM"}, {"SDTMDOM": ["SUPPEC"], "SDTMVAR": "ECENDAY"}, {"SDTMDOM": ["EC"], "SDTMVAR": "ECENDTC"}, {"SDTMDOM": ["EC"], "SDTMVAR": "ECENDY"}, {"SDTMDOM": ["EC"], "SDTMVAR": "ECENRF"}, {"SDTMDOM": ["EC"], "SDTMVAR": "ECENRTPT"}, {"SDTMDOM": ["SUPPEC"], "SDTMVAR": "ECENSCDY"}, {"SDTMDOM": ["EC"], "SDTMVAR": "ECENTPT"}, {"SDTMDOM": ["SUPPEC"], "SDTMVAR": "ECETPTTM"}, {"SDTMDOM": ["SUPPEC"], "SDTMVAR": "ECFLRT"}, {"SDTMDOM": ["SUPPEC"], "SDTMVAR": "ECFLRTU"}, {"SDTMDOM": ["EC"], "SDTMVAR": "ECGRPID"}, {"SDTMDOM": ["SUPPEC"], "SDTMVAR": "ECINT"}, {"SDTMDOM": ["SUPPEC"], "SDTMVAR": "ECINTDUR"}, {"SDTMDOM": ["EC"], "SDTMVAR": "ECLAT"}, {"SDTMDOM": ["EC"], "SDTMVAR": "ECLNKGRP"}, {"SDTMDOM": ["EC"], "SDTMVAR": "ECLNKID"}, {"SDTMDOM": ["EC"], "SDTMVAR": "ECLOC"}, {"SDTMDOM": ["SUPPEC"], "SDTMVAR": "ECLOCOTH"}, {"SDTMDOM": ["EC"], "SDTMVAR": "ECLOT"}, {"SDTMDOM": ["SUPPEC"], "SDTMVAR": "ECLOTLB"}, {"SDTMDOM": ["EC"], "SDTMVAR": "ECMOOD"}, {"SDTMDOM": ["EC"], "SDTMVAR": "ECOCCUR"}, {"SDTMDOM": ["SUPPEC"], "SDTMVAR": "ECPERIOD"}, {"SDTMDOM": ["EC"], "SDTMVAR": "ECPRESP"}, {"SDTMDOM": ["EC"], "SDTMVAR": "ECPSTRG"}, {"SDTMDOM": ["EC"], "SDTMVAR": "ECPSTRGU"}, {"SDTMDOM": ["SUPPEC"], "SDTMVAR": "ECREASOC"}, {"SDTMDOM": ["EC"], "SDTMVAR": "ECREFID"}, {"SDTMDOM": ["SUPPEC"], "SDTMVAR": "ECREFID2"}, {"SDTMDOM": ["SUPPEC"], "SDTMVAR": "ECREFID3"}, {"SDTMDOM": ["SUPPEC"], "SDTMVAR": "ECREFID4"}, {"SDTMDOM": ["SUPPEC"], "SDTMVAR": "ECREFID5"}, {"SDTMDOM": ["SUPPEC"], "SDTMVAR": "ECROTOTH"}, {"SDTMDOM": ["EC"], "SDTMVAR": "ECROUTE"}, {"SDTMDOM": ["SUPPEC"], "SDTMVAR": "ECSCHDY"}, {"SDTMDOM": ["EC"], "SDTMVAR": "ECSEQ"}, {"SDTMDOM": ["EC"], "SDTMVAR": "ECSPID"}, {"SDTMDOM": ["SUPPEC"], "SDTMVAR": "ECSTDAY"}, {"SDTMDOM": ["EC"], "SDTMVAR": "ECSTDTC"}, {"SDTMDOM": ["EC"], "SDTMVAR": "ECSTDY"}, {"SDTMDOM": ["EC"], "SDTMVAR": "ECTPT"}, {"SDTMDOM": ["EC"], "SDTMVAR": "ECTPTNUM"}, {"SDTMDOM": ["EC"], "SDTMVAR": "ECTPTREF"}, {"SDTMDOM": ["SUPPEC"], "SDTMVAR": "ECTPTTM"}, {"SDTMDOM": ["EC"], "SDTMVAR": "ECTRT"}, {"SDTMDOM": ["SUPPEC"], "SDTMVAR": "ECTRTCMP"}, {"SDTMDOM": ["SUPPEC"], "SDTMVAR": "ECTRTV"}, {"SDTMDOM": ["EC"], "SDTMVAR": "ECVAMT"}, {"SDTMDOM": ["EC"], "SDTMVAR": "ECVAMTU"}, {"SDTMDOM": ["SUPPEG"], "SDTMVAR": "EGAENO"}, {"SDTMDOM": ["EG"], "SDTMVAR": "EGBLFL"}, {"SDTMDOM": ["EG"], "SDTMVAR": "EGCAT"}, {"SDTMDOM": ["SUPPEG"], "SDTMVAR": "EGCLSIG"}, {"SDTMDOM": ["SUPPEG"], "SDTMVAR": "EGCODEX"}, {"SDTMDOM": ["SUPPEG"], "SDTMVAR": "EGCOMPL"}, {"SDTMDOM": ["EG"], "SDTMVAR": "EGDRVFL"}, {"SDTMDOM": ["EG"], "SDTMVAR": "EGDTC"}, {"SDTMDOM": ["EG"], "SDTMVAR": "EGDUR"}, {"SDTMDOM": ["EG"], "SDTMVAR": "EGDY"}, {"SDTMDOM": ["EG"], "SDTMVAR": "EGELTM"}, {"SDTMDOM": ["EG"], "SDTMVAR": "EGENDTC"}, {"SDTMDOM": ["EG"], "SDTMVAR": "EGENDY"}, {"SDTMDOM": ["EG"], "SDTMVAR": "EGLEAD"}, {"SDTMDOM": ["EG"], "SDTMVAR": "EGMETHOD"}, {"SDTMDOM": ["EG"], "SDTMVAR": "EGNAM"}, {"SDTMDOM": ["EG"], "SDTMVAR": "EGORRES"}, {"SDTMDOM": ["EG"], "SDTMVAR": "EGORRESU"}, {"SDTMDOM": ["EG"], "SDTMVAR": "EGPOS"}, {"SDTMDOM": ["SUPPEG"], "SDTMVAR": "EGRDMETH "}, {"SDTMDOM": ["SUPPEG"], "SDTMVAR": "EGREAD"}, {"SDTMDOM": ["EG"], "SDTMVAR": "EGREFID"}, {"SDTMDOM": ["SUPPEG"], "SDTMVAR": "EGREPNUM"}, {"SDTMDOM": ["EG"], "SDTMVAR": "EGRFTDTC"}, {"SDTMDOM": ["EG"], "SDTMVAR": "EGSCAT"}, {"SDTMDOM": ["EG"], "SDTMVAR": "EGSEQ"}, {"SDTMDOM": ["SUPPEG"], "SDTMVAR": "EGSOUR"}, {"SDTMDOM": ["EG"], "SDTMVAR": "EGSPID"}, {"SDTMDOM": ["EG"], "SDTMVAR": "EGSTAT"}, {"SDTMDOM": ["EG"], "SDTMVAR": "EGSTRESC"}, {"SDTMDOM": ["EG"], "SDTMVAR": "EGSTRESN"}, {"SDTMDOM": ["EG"], "SDTMVAR": "EGSTRESU"}, {"SDTMDOM": ["EG"], "SDTMVAR": "EGTEST"}, {"SDTMDOM": ["EG"], "SDTMVAR": "EGTESTCD"}, {"SDTMDOM": ["EG"], "SDTMVAR": "EGTPT"}, {"SDTMDOM": ["EG"], "SDTMVAR": "EGTPTNUM"}, {"SDTMDOM": ["EG"], "SDTMVAR": "EGTPTREF"}, {"SDTMDOM": ["EG"], "SDTMVAR": "EGXFN"}, {"SDTMDOM": ["SE", "TA", "TE"], "SDTMVAR": "ELEMENT"}, {"SDTMDOM": ["AE", "AG", "CC", "CCLN", "CE", "CI", "CM", "CV", "DA", "DD", "DE", "DS", "DV", "EC", "EG", "EX", "FA", "FAAE", "FACE", "FAPR", "FARS", "FT", "HO", "IE", "IS", "LB", "LBUS", "MH", "MI", "MK", "ML", "MO", "NV", "OE", "PC", "PE", "PF", "PP", "PR", "QS", "QSCQ", "QSEG", "QSKN", "QSPI", "QSMR", "RE", "RP", "RS", "SE", "SR", "SS", "SU", "SV", "TA", "TR", "TU", "VS"], "SDTMVAR": "EPOCH"}, {"SDTMDOM": ["SE", "TA", "TE"], "SDTMVAR": "ETCD"}, {"SDTMDOM": ["DM"], "SDTMVAR": "ETHNIC"}, {"SDTMDOM": ["SUPPEX"], "SDTMVAR": "EXACCYN"}, {"SDTMDOM": ["EX"], "SDTMVAR": "EXADJ"}, {"SDTMDOM": ["SUPPEX"], "SDTMVAR": "EXBUT"}, {"SDTMDOM": ["SUPPEX"], "SDTMVAR": "EXBUTU"}, {"SDTMDOM": ["EX"], "SDTMVAR": "EXCAT"}, {"SDTMDOM": ["SUPPEX"], "SDTMVAR": "EXCM"}, {"SDTMDOM": ["EX"], "SDTMVAR": "EXDIR"}, {"SDTMDOM": ["SUPPEX"], "SDTMVAR": "EXDOSADJ"}, {"SDTMDOM": ["EX"], "SDTMVAR": "EXDOSE"}, {"SDTMDOM": ["EX"], "SDTMVAR": "EXDOSFRM"}, {"SDTMDOM": ["EX"], "SDTMVAR": "EXDOSFRQ"}, {"SDTMDOM": ["EX"], "SDTMVAR": "EXDOSRGM"}, {"SDTMDOM": ["EX"], "SDTMVAR": "EXDOSTXT"}, {"SDTMDOM": ["EX"], "SDTMVAR": "EXDOSU"}, {"SDTMDOM": ["EX"], "SDTMVAR": "EXELTM"}, {"SDTMDOM": ["SUPPEX"], "SDTMVAR": "EXENDAY"}, {"SDTMDOM": ["EX"], "SDTMVAR": "EXENDTC"}, {"SDTMDOM": ["EX"], "SDTMVAR": "EXENDY"}, {"SDTMDOM": ["EX"], "SDTMVAR": "EXENRF"}, {"SDTMDOM": ["EX"], "SDTMVAR": "EXENRTPT"}, {"SDTMDOM": ["SUPPEX"], "SDTMVAR": "EXENSCDY"}, {"SDTMDOM": ["EX"], "SDTMVAR": "EXENTPT"}, {"SDTMDOM": ["SUPPEX"], "SDTMVAR": "EXETPTTM"}, {"SDTMDOM": ["SUPPEX"], "SDTMVAR": "EXFLRT"}, {"SDTMDOM": ["SUPPEX"], "SDTMVAR": "EXFLRTU"}, {"SDTMDOM": ["EX"], "SDTMVAR": "EXGRPID"}, {"SDTMDOM": ["SUPPEX"], "SDTMVAR": "EXIMPNA"}, {"SDTMDOM": ["SUPPEX"], "SDTMVAR": "EXINT"}, {"SDTMDOM": ["SUPPEX"], "SDTMVAR": "EXINTDUR"}, {"SDTMDOM": ["EX"], "SDTMVAR": "EXLAT"}, {"SDTMDOM": ["EX"], "SDTMVAR": "EXLNKGRP"}, {"SDTMDOM": ["EX"], "SDTMVAR": "EXLNKID"}, {"SDTMDOM": ["EX"], "SDTMVAR": "EXLOC"}, {"SDTMDOM": ["SUPPEX"], "SDTMVAR": "EXLOCOTH"}, {"SDTMDOM": ["EX"], "SDTMVAR": "EXLOT"}, {"SDTMDOM": ["SUPPEX"], "SDTMVAR": "EXLOTLB"}, {"SDTMDOM": ["SUPPEX"], "SDTMVAR": "EXPERIOD"}, {"SDTMDOM": ["SUPPDM"], "SDTMVAR": "EXPOSED"}, {"SDTMDOM": ["EX"], "SDTMVAR": "EXREFID"}, {"SDTMDOM": ["SUPPEX"], "SDTMVAR": "EXREFID2"}, {"SDTMDOM": ["SUPPEX"], "SDTMVAR": "EXREFID3"}, {"SDTMDOM": ["SUPPEX"], "SDTMVAR": "EXREFID4"}, {"SDTMDOM": ["SUPPEX"], "SDTMVAR": "EXREFID5"}, {"SDTMDOM": ["SUPPEX"], "SDTMVAR": "EXROTOTH"}, {"SDTMDOM": ["EX"], "SDTMVAR": "EXROUTE"}, {"SDTMDOM": ["SUPPEX"], "SDTMVAR": "EXSCHDY"}, {"SDTMDOM": ["EX"], "SDTMVAR": "EXSEQ"}, {"SDTMDOM": ["EX"], "SDTMVAR": "EXSPID"}, {"SDTMDOM": ["SUPPEX"], "SDTMVAR": "EXSTDAY"}, {"SDTMDOM": ["EX"], "SDTMVAR": "EXSTDTC"}, {"SDTMDOM": ["EX"], "SDTMVAR": "EXSTDY"}, {"SDTMDOM": ["EX"], "SDTMVAR": "EXTPT"}, {"SDTMDOM": ["EX"], "SDTMVAR": "EXTPTNUM"}, {"SDTMDOM": ["EX"], "SDTMVAR": "EXTPTREF"}, {"SDTMDOM": ["SUPPEX"], "SDTMVAR": "EXTPTTM"}, {"SDTMDOM": ["EX"], "SDTMVAR": "EXTRT"}, {"SDTMDOM": ["SUPPEX"], "SDTMVAR": "EXTRTCMP"}, {"SDTMDOM": ["EX"], "SDTMVAR": "EXTRTV"}, {"SDTMDOM": ["EX"], "SDTMVAR": "EXVAMT"}, {"SDTMDOM": ["EX"], "SDTMVAR": "EXVAMTU"}, {"SDTMDOM": ["SUPPFAAE"], "SDTMVAR": "FAAENO"}, {"SDTMDOM": ["FA"], "SDTMVAR": "FABLFL"}, {"SDTMDOM": ["FA", "FAAE", "FACE", "FAPR", "FARS"], "SDTMVAR": "FACAT"}, {"SDTMDOM": ["SUPPFACE"], "SDTMVAR": "FACLSIG"}, {"SDTMDOM": ["FA"], "SDTMVAR": "FADRVFL"}, {"SDTMDOM": ["FA", "FACE"], "SDTMVAR": "FADTC"}, {"SDTMDOM": ["FA"], "SDTMVAR": "FADY"}, {"SDTMDOM": ["FA"], "SDTMVAR": "FAELTM"}, {"SDTMDOM": ["FA"], "SDTMVAR": "FAEVAL"}, {"SDTMDOM": ["FA"], "SDTMVAR": "FAGRPID"}, {"SDTMDOM": ["FA", "FACE", "FAPR"], "SDTMVAR": "FALAT"}, {"SDTMDOM": ["FA", "FAAE", "FACE", "FAPR", "FARS"], "SDTMVAR": "FALNKID"}, {"SDTMDOM": ["FA"], "SDTMVAR": "FALOC"}, {"SDTMDOM": ["FA", "FAAE", "FACE", "FAPR", "FARS"], "SDTMVAR": "FAOBJ"}, {"SDTMDOM": ["FA", "FAAE", "FACE", "FAPR", "FARS"], "SDTMVAR": "FAORRES"}, {"SDTMDOM": ["SUPPFA"], "SDTMVAR": "FAORRESN"}, {"SDTMDOM": ["FA", "FAAE", "FACE", "FAPR"], "SDTMVAR": "FAORRESU"}, {"SDTMDOM": ["FA"], "SDTMVAR": "FAREASND"}, {"SDTMDOM": ["FA", "FAAE", "FACE", "FAPR"], "SDTMVAR": "FAREFID"}, {"SDTMDOM": ["FA", "FARS"], "SDTMVAR": "FASCAT"}, {"SDTMDOM": ["FA", "FAAE", "FACE", "FAPR", "FARS"], "SDTMVAR": "FASEQ"}, {"SDTMDOM": ["FA", "FAAE", "FACE", "FAPR", "FARS"], "SDTMVAR": "FASPID"}, {"SDTMDOM": ["FA"], "SDTMVAR": "FASTAT"}, {"SDTMDOM": ["FA", "FAAE", "FACE", "FAPR", "FARS"], "SDTMVAR": "FASTRESC"}, {"SDTMDOM": ["FA", "FAAE", "FACE", "FAPR"], "SDTMVAR": "FASTRESN"}, {"SDTMDOM": ["FA", "FAAE", "FACE", "FAPR"], "SDTMVAR": "FASTRESU"}, {"SDTMDOM": ["FA"], "SDTMVAR": "FASTRTPT"}, {"SDTMDOM": ["FA"], "SDTMVAR": "FASTTPT"}, {"SDTMDOM": ["FA", "FAAE", "FACE", "FAPR", "FARS"], "SDTMVAR": "FATEST"}, {"SDTMDOM": ["FA", "FAAE", "FACE", "FAPR", "FARS"], "SDTMVAR": "FATESTCD"}, {"SDTMDOM": ["FA"], "SDTMVAR": "FATPT"}, {"SDTMDOM": ["FA"], "SDTMVAR": "FATPTNUM"}, {"SDTMDOM": ["FA"], "SDTMVAR": "FATPTREF"}, {"SDTMDOM": ["FT"], "SDTMVAR": "FTBLFL"}, {"SDTMDOM": ["FT"], "SDTMVAR": "FTCAT"}, {"SDTMDOM": ["FT"], "SDTMVAR": "FTDRVFL"}, {"SDTMDOM": ["FT"], "SDTMVAR": "FTDTC"}, {"SDTMDOM": ["FT"], "SDTMVAR": "FTDY"}, {"SDTMDOM": ["FT"], "SDTMVAR": "FTELTM"}, {"SDTMDOM": ["FT"], "SDTMVAR": "FTEVAL"}, {"SDTMDOM": ["FT"], "SDTMVAR": "FTGRPID"}, {"SDTMDOM": ["FT"], "SDTMVAR": "FTMETHOD"}, {"SDTMDOM": ["FT"], "SDTMVAR": "FTNAM"}, {"SDTMDOM": ["FT"], "SDTMVAR": "FTORRES"}, {"SDTMDOM": ["FT"], "SDTMVAR": "FTORRESU"}, {"SDTMDOM": ["FT"], "SDTMVAR": "FTPOS"}, {"SDTMDOM": ["FT"], "SDTMVAR": "FTREASND"}, {"SDTMDOM": ["FT"], "SDTMVAR": "FTREFID"}, {"SDTMDOM": ["SUPPFT"], "SDTMVAR": "FTREPNUM"}, {"SDTMDOM": ["FT"], "SDTMVAR": "FTRFTDTC"}, {"SDTMDOM": ["FT"], "SDTMVAR": "FTSCAT"}, {"SDTMDOM": ["FT"], "SDTMVAR": "FTSEQ"}, {"SDTMDOM": ["FT"], "SDTMVAR": "FTSPID"}, {"SDTMDOM": ["FT"], "SDTMVAR": "FTSTAT"}, {"SDTMDOM": ["FT"], "SDTMVAR": "FTSTRESC"}, {"SDTMDOM": ["FT"], "SDTMVAR": "FTSTRESN"}, {"SDTMDOM": ["FT"], "SDTMVAR": "FTSTRESU"}, {"SDTMDOM": ["FT"], "SDTMVAR": "FTTEST"}, {"SDTMDOM": ["FT"], "SDTMVAR": "FTTESTCD"}, {"SDTMDOM": ["FT"], "SDTMVAR": "FTTPT"}, {"SDTMDOM": ["FT"], "SDTMVAR": "FTTPTNUM"}, {"SDTMDOM": ["FT"], "SDTMVAR": "FTTPTREF"}, {"SDTMDOM": ["FT"], "SDTMVAR": "FTTSTDTL"}, {"SDTMDOM": ["SUPPHO"], "SDTMVAR": "HOAENO"}, {"SDTMDOM": ["HO"], "SDTMVAR": "HOCAT"}, {"SDTMDOM": ["HO"], "SDTMVAR": "HODECOD"}, {"SDTMDOM": ["HO"], "SDTMVAR": "HODTC"}, {"SDTMDOM": ["HO"], "SDTMVAR": "HODUR"}, {"SDTMDOM": ["HO"], "SDTMVAR": "HODY"}, {"SDTMDOM": ["HO"], "SDTMVAR": "HOENDTC"}, {"SDTMDOM": ["HO"], "SDTMVAR": "HOENDY"}, {"SDTMDOM": ["HO"], "SDTMVAR": "HOENRTPT"}, {"SDTMDOM": ["HO"], "SDTMVAR": "HOENTPT"}, {"SDTMDOM": ["HO"], "SDTMVAR": "HOGRPID"}, {"SDTMDOM": ["HO"], "SDTMVAR": "HOOCCUR"}, {"SDTMDOM": ["HO"], "SDTMVAR": "HOPRESP"}, {"SDTMDOM": ["SUPPHO"], "SDTMVAR": "HOPRNO"}, {"SDTMDOM": ["HO"], "SDTMVAR": "HOREASND"}, {"SDTMDOM": ["HO"], "SDTMVAR": "HOREFID"}, {"SDTMDOM": ["HO"], "SDTMVAR": "HOSCAT"}, {"SDTMDOM": ["HO"], "SDTMVAR": "HOSEQ"}, {"SDTMDOM": ["HO"], "SDTMVAR": "HOSPID"}, {"SDTMDOM": ["HO"], "SDTMVAR": "HOSTAT"}, {"SDTMDOM": ["HO"], "SDTMVAR": "HOSTDTC"}, {"SDTMDOM": ["HO"], "SDTMVAR": "HOSTDY"}, {"SDTMDOM": ["HO"], "SDTMVAR": "HOSTRTPT"}, {"SDTMDOM": ["HO"], "SDTMVAR": "HOSTTPT"}, {"SDTMDOM": ["HO"], "SDTMVAR": "HOTERM"}, {"SDTMDOM": ["CO", "RELREC"], "SDTMVAR": "IDVAR"}, {"SDTMDOM": ["CO", "RELREC"], "SDTMVAR": "IDVARVAL"}, {"SDTMDOM": ["IE", "TI"], "SDTMVAR": "IECAT"}, {"SDTMDOM": ["SUPPIE"], "SDTMVAR": "IECOVAL"}, {"SDTMDOM": ["IE"], "SDTMVAR": "IEORRES"}, {"SDTMDOM": ["IE", "TI"], "SDTMVAR": "IESCAT"}, {"SDTMDOM": ["IE"], "SDTMVAR": "IESEQ"}, {"SDTMDOM": ["IE"], "SDTMVAR": "IESTRESC"}, {"SDTMDOM": ["IE", "TI"], "SDTMVAR": "IETEST"}, {"SDTMDOM": ["IE", "LDV", "TI"], "SDTMVAR": "IETESTCD"}, {"SDTMDOM": ["SUPPDM", "SUPPIE"], "SDTMVAR": "IEVERS"}, {"SDTMDOM": ["DM"], "SDTMVAR": "INVID"}, {"SDTMDOM": ["DM"], "SDTMVAR": "INVNAM"}, {"SDTMDOM": ["IS"], "SDTMVAR": "ISBLFL"}, {"SDTMDOM": ["IS"], "SDTMVAR": "ISCAT"}, {"SDTMDOM": ["SUPPIS"], "SDTMVAR": "ISCOVAL"}, {"SDTMDOM": ["IS"], "SDTMVAR": "ISDTC"}, {"SDTMDOM": ["IS"], "SDTMVAR": "ISDY"}, {"SDTMDOM": ["IS"], "SDTMVAR": "ISGRPID"}, {"SDTMDOM": ["IS"], "SDTMVAR": "ISLLOQ"}, {"SDTMDOM": ["IS"], "SDTMVAR": "ISMETHOD"}, {"SDTMDOM": ["IS"], "SDTMVAR": "ISNAM"}, {"SDTMDOM": ["IS"], "SDTMVAR": "ISORRES"}, {"SDTMDOM": ["IS"], "SDTMVAR": "ISORRESU"}, {"SDTMDOM": ["SUPPIS"], "SDTMVAR": "ISPERIOD"}, {"SDTMDOM": ["IS"], "SDTMVAR": "ISREASND"}, {"SDTMDOM": ["IS"], "SDTMVAR": "ISREFID"}, {"SDTMDOM": ["SUPPIS"], "SDTMVAR": "ISREPNUM"}, {"SDTMDOM": ["IS"], "SDTMVAR": "ISSCAT"}, {"SDTMDOM": ["IS"], "SDTMVAR": "ISSEQ"}, {"SDTMDOM": ["IS"], "SDTMVAR": "ISSPCCND"}, {"SDTMDOM": ["IS"], "SDTMVAR": "ISSPEC"}, {"SDTMDOM": ["IS"], "SDTMVAR": "ISSPID"}, {"SDTMDOM": ["IS"], "SDTMVAR": "ISSTAT"}, {"SDTMDOM": ["IS"], "SDTMVAR": "ISSTRESC"}, {"SDTMDOM": ["IS"], "SDTMVAR": "ISSTRESN"}, {"SDTMDOM": ["IS"], "SDTMVAR": "ISSTRESU"}, {"SDTMDOM": ["SUPPIS"], "SDTMVAR": "ISTARGET"}, {"SDTMDOM": ["IS"], "SDTMVAR": "ISTEST"}, {"SDTMDOM": ["IS"], "SDTMVAR": "ISTESTCD"}, {"SDTMDOM": ["IS"], "SDTMVAR": "ISTPT"}, {"SDTMDOM": ["IS"], "SDTMVAR": "ISTPTNUM"}, {"SDTMDOM": ["IS"], "SDTMVAR": "ISTSTDTL"}, {"SDTMDOM": ["IS"], "SDTMVAR": "ISULOQ"}, {"SDTMDOM": ["SUPPDM"], "SDTMVAR": "ITT"}, {"SDTMDOM": ["SUPPLB"], "SDTMVAR": "LBACCYN"}, {"SDTMDOM": ["SUPPLB", "SUPPLBUS"], "SDTMVAR": "LBAENO"}, {"SDTMDOM": ["SUPPLB", "SUPPLBUS"], "SDTMVAR": "LBALRTFL"}, {"SDTMDOM": ["LB", "LBUS"], "SDTMVAR": "LBBLFL"}, {"SDTMDOM": ["LB", "LBUS"], "SDTMVAR": "LBCAT"}, {"SDTMDOM": ["SUPPLB", "SUPPLBUS"], "SDTMVAR": "LBCLMETH"}, {"SDTMDOM": ["SUPPLB", "SUPPLBUS"], "SDTMVAR": "LBCLSIG"}, {"SDTMDOM": ["SUPPLB"], "SDTMVAR": "LBCM"}, {"SDTMDOM": ["SUPPLB", "SUPPLBUS"], "SDTMVAR": "LBCOND"}, {"SDTMDOM": ["SUPPLB", "SUPPLBUS"], "SDTMVAR": "LBCONV"}, {"SDTMDOM": ["SUPPLB", "SUPPLBUS"], "SDTMVAR": "LBCOVAL"}, {"SDTMDOM": ["SUPPLB", "SUPPLBUS"], "SDTMVAR": "LBDICTV"}, {"SDTMDOM": ["SUPPLB", "SUPPLBUS"], "SDTMVAR": "LBDIGIT"}, {"SDTMDOM": ["LB", "LBUS"], "SDTMVAR": "LBDRVFL"}, {"SDTMDOM": ["LB", "LBUS"], "SDTMVAR": "LBDTC"}, {"SDTMDOM": ["LB", "LBUS"], "SDTMVAR": "LBDY"}, {"SDTMDOM": ["LB", "LBUS"], "SDTMVAR": "LBELTM"}, {"SDTMDOM": ["LB", "LBUS"], "SDTMVAR": "LBENDTC"}, {"SDTMDOM": ["LB", "LBUS"], "SDTMVAR": "LBENDY"}, {"SDTMDOM": ["LB", "LBUS"], "SDTMVAR": "LBENRTPT"}, {"SDTMDOM": ["LB", "LBUS"], "SDTMVAR": "LBENTPT"}, {"SDTMDOM": ["SUPPLB", "SUPPLBUS"], "SDTMVAR": "LBETPTNM"}, {"SDTMDOM": ["LB"], "SDTMVAR": "LBEVAL"}, {"SDTMDOM": ["LB", "LBUS"], "SDTMVAR": "LBFAST"}, {"SDTMDOM": ["LB", "LBUS"], "SDTMVAR": "LBGRPID"}, {"SDTMDOM": ["SUPPLB", "SUPPLBUS"], "SDTMVAR": "LBLIMSID"}, {"SDTMDOM": ["LB", "LBUS"], "SDTMVAR": "LBLNKID"}, {"SDTMDOM": ["LB", "LBUS"], "SDTMVAR": "LBLOINC"}, {"SDTMDOM": ["LB", "LBUS"], "SDTMVAR": "LBMETHOD"}, {"SDTMDOM": ["LB", "LBUS"], "SDTMVAR": "LBNAM"}, {"SDTMDOM": ["SUPPLB", "SUPPLBUS"], "SDTMVAR": "LBNOABN"}, {"SDTMDOM": ["LB", "LBUS"], "SDTMVAR": "LBNRIND"}, {"SDTMDOM": ["SUPPLB"], "SDTMVAR": "LBOREREA"}, {"SDTMDOM": ["SUPPLB"], "SDTMVAR": "LBORESSP"}, {"SDTMDOM": ["SUPPLB"], "SDTMVAR": "LBORESTK"}, {"SDTMDOM": ["LB", "LBUS"], "SDTMVAR": "LBORNRHI"}, {"SDTMDOM": ["LB", "LBUS"], "SDTMVAR": "LBORNRLO"}, {"SDTMDOM": ["LB", "LBUS"], "SDTMVAR": "LBORRES"}, {"SDTMDOM": ["LB", "LBUS"], "SDTMVAR": "LBORRESU"}, {"SDTMDOM": ["SUPPLB"], "SDTMVAR": "LBPROFID"}, {"SDTMDOM": ["SUPPLB", "SUPPLBUS"], "SDTMVAR": "LBRANTYP"}, {"SDTMDOM": ["LB", "LBUS"], "SDTMVAR": "LBREASND"}, {"SDTMDOM": ["LB", "LBUS"], "SDTMVAR": "LBREFID"}, {"SDTMDOM": ["LB", "LBUS"], "SDTMVAR": "LBRFTDTC"}, {"SDTMDOM": ["SUPPLB", "SUPPLBUS"], "SDTMVAR": "LBROWID"}, {"SDTMDOM": ["SUPPLB", "SUPPLBUS"], "SDTMVAR": "LBSAMID"}, {"SDTMDOM": ["LB", "LBUS"], "SDTMVAR": "LBSCAT"}, {"SDTMDOM": ["LB", "LBUS"], "SDTMVAR": "LBSEQ"}, {"SDTMDOM": ["SUPPLB", "SUPPLBUS"], "SDTMVAR": "LBSONRHI"}, {"SDTMDOM": ["SUPPLB", "SUPPLBUS"], "SDTMVAR": "LBSONRLO"}, {"SDTMDOM": ["LB", "LBUS"], "SDTMVAR": "LBSPCCND"}, {"SDTMDOM": ["LB", "LBUS"], "SDTMVAR": "LBSPEC"}, {"SDTMDOM": ["LB", "LBUS"], "SDTMVAR": "LBSPID"}, {"SDTMDOM": ["LB", "LBUS"], "SDTMVAR": "LBSTAT"}, {"SDTMDOM": ["LB", "LBUS"], "SDTMVAR": "LBSTNRC"}, {"SDTMDOM": ["LB", "LBUS"], "SDTMVAR": "LBSTNRHI"}, {"SDTMDOM": ["LB", "LBUS"], "SDTMVAR": "LBSTNRLO"}, {"SDTMDOM": ["LB", "LBUS"], "SDTMVAR": "LBSTRESC"}, {"SDTMDOM": ["LB", "LBUS"], "SDTMVAR": "LBSTRESN"}, {"SDTMDOM": ["LB", "LBUS"], "SDTMVAR": "LBSTRESU"}, {"SDTMDOM": ["SUPPLB", "SUPPLBUS"], "SDTMVAR": "LBTCOVAL"}, {"SDTMDOM": ["LB", "LBUS"], "SDTMVAR": "LBTEST"}, {"SDTMDOM": ["LB", "LBUS"], "SDTMVAR": "LBTESTCD"}, {"SDTMDOM": ["LB", "LBUS"], "SDTMVAR": "LBTOX"}, {"SDTMDOM": ["LB", "LBUS"], "SDTMVAR": "LBTOXGR"}, {"SDTMDOM": ["LB", "LBUS"], "SDTMVAR": "LBTPT"}, {"SDTMDOM": ["LB", "LBUS"], "SDTMVAR": "LBTPTNUM"}, {"SDTMDOM": ["LB", "LBUS"], "SDTMVAR": "LBTPTREF"}, {"SDTMDOM": ["SUPPLB", "SUPPLBUS"], "SDTMVAR": "LBTYPE"}, {"SDTMDOM": ["SUPPLB"], "SDTMVAR": "LBULOD"}, {"SDTMDOM": ["APMH", "MH"], "SDTMVAR": "MHBDSYCD"}, {"SDTMDOM": ["APMH", "MH"], "SDTMVAR": "MHBODSYS"}, {"SDTMDOM": ["APMH", "MH"], "SDTMVAR": "MHCAT"}, {"SDTMDOM": ["APMH", "MH"], "SDTMVAR": "MHDECOD"}, {"SDTMDOM": ["SUPPMH"], "SDTMVAR": "MHDICTV"}, {"SDTMDOM": ["MH"], "SDTMVAR": "MHENDTC"}, {"SDTMDOM": ["MH"], "SDTMVAR": "MHENDY"}, {"SDTMDOM": ["MH"], "SDTMVAR": "MHENRTPT"}, {"SDTMDOM": ["MH"], "SDTMVAR": "MHENTPT"}, {"SDTMDOM": ["SUPPMH"], "SDTMVAR": "MHEVDTYP"}, {"SDTMDOM": ["MH"], "SDTMVAR": "MHEVINTX"}, {"SDTMDOM": ["APMH", "MH"], "SDTMVAR": "MHHLGT"}, {"SDTMDOM": ["APMH", "MH"], "SDTMVAR": "MHHLGTCD"}, {"SDTMDOM": ["APMH", "MH"], "SDTMVAR": "MHHLT"}, {"SDTMDOM": ["APMH", "MH"], "SDTMVAR": "MHHLTCD"}, {"SDTMDOM": ["APMH", "MH"], "SDTMVAR": "MHLLT"}, {"SDTMDOM": ["APMH", "MH"], "SDTMVAR": "MHLLTCD"}, {"SDTMDOM": ["MH"], "SDTMVAR": "MHLNKID"}, {"SDTMDOM": ["MH"], "SDTMVAR": "MHLOC"}, {"SDTMDOM": ["SUPPMH"], "SDTMVAR": "MHLOCOTH"}, {"SDTMDOM": ["APMH", "MH"], "SDTMVAR": "MHOCCUR"}, {"SDTMDOM": ["APMH", "MH"], "SDTMVAR": "MHPRESP"}, {"SDTMDOM": ["APMH", "MH"], "SDTMVAR": "MHPTCD"}, {"SDTMDOM": ["MH"], "SDTMVAR": "MHSCAT"}, {"SDTMDOM": ["APMH", "MH"], "SDTMVAR": "MHSEQ"}, {"SDTMDOM": ["APMH", "MH"], "SDTMVAR": "MHSOC"}, {"SDTMDOM": ["APMH", "MH"], "SDTMVAR": "MHSOCCD"}, {"SDTMDOM": ["APMH", "MH"], "SDTMVAR": "MHSPID"}, {"SDTMDOM": ["APMH", "MH"], "SDTMVAR": "MHSTAT"}, {"SDTMDOM": ["MH"], "SDTMVAR": "MHSTDTC"}, {"SDTMDOM": ["MH"], "SDTMVAR": "MHSTDY"}, {"SDTMDOM": ["APMH", "MH"], "SDTMVAR": "MHTERM"}, {"SDTMDOM": ["MI"], "SDTMVAR": "MIBLFL"}, {"SDTMDOM": ["MI"], "SDTMVAR": "MICAT"}, {"SDTMDOM": ["MI"], "SDTMVAR": "MIDTC"}, {"SDTMDOM": ["MI"], "SDTMVAR": "MIDY"}, {"SDTMDOM": ["MI"], "SDTMVAR": "MILOC"}, {"SDTMDOM": ["MI"], "SDTMVAR": "MIMETHOD"}, {"SDTMDOM": ["MI"], "SDTMVAR": "MIORRES"}, {"SDTMDOM": ["MI"], "SDTMVAR": "MIORRESU"}, {"SDTMDOM": ["MI"], "SDTMVAR": "MISCAT"}, {"SDTMDOM": ["MI"], "SDTMVAR": "MISEQ"}, {"SDTMDOM": ["MI"], "SDTMVAR": "MISPCCND"}, {"SDTMDOM": ["MI"], "SDTMVAR": "MISPEC"}, {"SDTMDOM": ["MI"], "SDTMVAR": "MISPID"}, {"SDTMDOM": ["MI"], "SDTMVAR": "MISTAT"}, {"SDTMDOM": ["MI"], "SDTMVAR": "MISTRESC"}, {"SDTMDOM": ["MI"], "SDTMVAR": "MISTRESN"}, {"SDTMDOM": ["MI"], "SDTMVAR": "MISTRESU"}, {"SDTMDOM": ["MI"], "SDTMVAR": "MITEST"}, {"SDTMDOM": ["MI"], "SDTMVAR": "MITESTCD"}, {"SDTMDOM": ["MI"], "SDTMVAR": "MITSTDTL"}, {"SDTMDOM": ["MK"], "SDTMVAR": "MKBLFL"}, {"SDTMDOM": ["MK"], "SDTMVAR": "MKCAT"}, {"SDTMDOM": ["MK"], "SDTMVAR": "MKDIR"}, {"SDTMDOM": ["MK"], "SDTMVAR": "MKDRVFL"}, {"SDTMDOM": ["MK"], "SDTMVAR": "MKDTC"}, {"SDTMDOM": ["MK"], "SDTMVAR": "MKDY"}, {"SDTMDOM": ["MK"], "SDTMVAR": "MKELTM"}, {"SDTMDOM": ["MK"], "SDTMVAR": "MKEVAL"}, {"SDTMDOM": ["MK"], "SDTMVAR": "MKEVALID"}, {"SDTMDOM": ["MK"], "SDTMVAR": "MKGRPID"}, {"SDTMDOM": ["MK"], "SDTMVAR": "MKLAT"}, {"SDTMDOM": ["MK"], "SDTMVAR": "MKLNKGRP"}, {"SDTMDOM": ["MK"], "SDTMVAR": "MKLNKID"}, {"SDTMDOM": ["MK"], "SDTMVAR": "MKLOC"}, {"SDTMDOM": ["MK"], "SDTMVAR": "MKMETHOD"}, {"SDTMDOM": ["MK"], "SDTMVAR": "MKORRES"}, {"SDTMDOM": ["MK"], "SDTMVAR": "MKPOS"}, {"SDTMDOM": ["MK"], "SDTMVAR": "MKREASND"}, {"SDTMDOM": ["MK"], "SDTMVAR": "MKREFID"}, {"SDTMDOM": ["MK"], "SDTMVAR": "MKRFTDTC"}, {"SDTMDOM": ["MK"], "SDTMVAR": "MKSCAT"}, {"SDTMDOM": ["MK"], "SDTMVAR": "MKSEQ"}, {"SDTMDOM": ["MK"], "SDTMVAR": "MKSPID"}, {"SDTMDOM": ["MK"], "SDTMVAR": "MKSTAT"}, {"SDTMDOM": ["MK"], "SDTMVAR": "MKSTRESC"}, {"SDTMDOM": ["MK"], "SDTMVAR": "MKSTRESN"}, {"SDTMDOM": ["MK"], "SDTMVAR": "MKTEST"}, {"SDTMDOM": ["MK"], "SDTMVAR": "MKTESTCD"}, {"SDTMDOM": ["MK"], "SDTMVAR": "MKTPT"}, {"SDTMDOM": ["MK"], "SDTMVAR": "MKTPTNUM"}, {"SDTMDOM": ["MK"], "SDTMVAR": "MKTPTREF"}, {"SDTMDOM": ["ML"], "SDTMVAR": "MLCAT"}, {"SDTMDOM": ["ML"], "SDTMVAR": "MLDOSE"}, {"SDTMDOM": ["ML"], "SDTMVAR": "MLDOSTXT"}, {"SDTMDOM": ["ML"], "SDTMVAR": "MLDOSU"}, {"SDTMDOM": ["ML"], "SDTMVAR": "MLELTM"}, {"SDTMDOM": ["ML"], "SDTMVAR": "MLENDTC"}, {"SDTMDOM": ["ML"], "SDTMVAR": "MLENDY"}, {"SDTMDOM": ["ML"], "SDTMVAR": "MLLNKID"}, {"SDTMDOM": ["ML"], "SDTMVAR": "MLOCCUR"}, {"SDTMDOM": ["ML"], "SDTMVAR": "MLPRESP"}, {"SDTMDOM": ["ML"], "SDTMVAR": "MLSCAT"}, {"SDTMDOM": ["ML"], "SDTMVAR": "MLSEQ"}, {"SDTMDOM": ["ML"], "SDTMVAR": "MLSTAT"}, {"SDTMDOM": ["ML"], "SDTMVAR": "MLSTDTC"}, {"SDTMDOM": ["ML"], "SDTMVAR": "MLSTDY"}, {"SDTMDOM": ["ML"], "SDTMVAR": "MLSTRTPT"}, {"SDTMDOM": ["ML"], "SDTMVAR": "MLSTTPT"}, {"SDTMDOM": ["ML"], "SDTMVAR": "MLTPT"}, {"SDTMDOM": ["ML"], "SDTMVAR": "MLTPTNUM"}, {"SDTMDOM": ["ML"], "SDTMVAR": "MLTPTREF"}, {"SDTMDOM": ["ML"], "SDTMVAR": "MLTRT"}, {"SDTMDOM": ["MO"], "SDTMVAR": "MOANMETH"}, {"SDTMDOM": ["MO"], "SDTMVAR": "MOBLFL"}, {"SDTMDOM": ["MO"], "SDTMVAR": "MOCAT"}, {"SDTMDOM": ["SUPPMO"], "SDTMVAR": "MOCLSIG"}, {"SDTMDOM": ["SUPPMO"], "SDTMVAR": "MOCLSIGC"}, {"SDTMDOM": ["MO"], "SDTMVAR": "MODIR"}, {"SDTMDOM": ["MO"], "SDTMVAR": "MODRVFL"}, {"SDTMDOM": ["MO"], "SDTMVAR": "MODTC"}, {"SDTMDOM": ["MO"], "SDTMVAR": "MODY"}, {"SDTMDOM": ["MO"], "SDTMVAR": "MOELTM"}, {"SDTMDOM": ["MO"], "SDTMVAR": "MOEVAL"}, {"SDTMDOM": ["MO"], "SDTMVAR": "MOGRPID"}, {"SDTMDOM": ["MO"], "SDTMVAR": "MOLAT"}, {"SDTMDOM": ["MO"], "SDTMVAR": "MOLNKID"}, {"SDTMDOM": ["MO"], "SDTMVAR": "MOLOC"}, {"SDTMDOM": ["MO"], "SDTMVAR": "MOMETHOD"}, {"SDTMDOM": ["SUPPMO"], "SDTMVAR": "MOMETOTH"}, {"SDTMDOM": ["MO"], "SDTMVAR": "MONAM"}, {"SDTMDOM": ["MO"], "SDTMVAR": "MOORRES"}, {"SDTMDOM": ["MO"], "SDTMVAR": "MOORRESU"}, {"SDTMDOM": ["MO"], "SDTMVAR": "MOPORTOT"}, {"SDTMDOM": ["MO"], "SDTMVAR": "MOPOS"}, {"SDTMDOM": ["MO"], "SDTMVAR": "MOREASND"}, {"SDTMDOM": ["MO"], "SDTMVAR": "MOREFID"}, {"SDTMDOM": ["MO"], "SDTMVAR": "MORFTDTC"}, {"SDTMDOM": ["MO"], "SDTMVAR": "MOSCAT"}, {"SDTMDOM": ["MO"], "SDTMVAR": "MOSEQ"}, {"SDTMDOM": ["MO"], "SDTMVAR": "MOSPID"}, {"SDTMDOM": ["MO"], "SDTMVAR": "MOSTAT"}, {"SDTMDOM": ["MO"], "SDTMVAR": "MOSTRESC"}, {"SDTMDOM": ["MO"], "SDTMVAR": "MOSTRESN"}, {"SDTMDOM": ["MO"], "SDTMVAR": "MOSTRESU"}, {"SDTMDOM": ["MO"], "SDTMVAR": "MOTEST"}, {"SDTMDOM": ["MO"], "SDTMVAR": "MOTESTCD"}, {"SDTMDOM": ["MO"], "SDTMVAR": "MOTPT"}, {"SDTMDOM": ["MO"], "SDTMVAR": "MOTPTNUM"}, {"SDTMDOM": ["MO"], "SDTMVAR": "MOTPTREF"}, {"SDTMDOM": ["MO"], "SDTMVAR": "MOXFN"}, {"SDTMDOM": ["NV"], "SDTMVAR": "NVBLFL"}, {"SDTMDOM": ["NV"], "SDTMVAR": "NVCAT"}, {"SDTMDOM": ["NV"], "SDTMVAR": "NVDIR"}, {"SDTMDOM": ["NV"], "SDTMVAR": "NVDRVFL"}, {"SDTMDOM": ["NV"], "SDTMVAR": "NVDTC"}, {"SDTMDOM": ["NV"], "SDTMVAR": "NVDY"}, {"SDTMDOM": ["NV"], "SDTMVAR": "NVELTM"}, {"SDTMDOM": ["NV"], "SDTMVAR": "NVEVAL"}, {"SDTMDOM": ["NV"], "SDTMVAR": "NVGRPID"}, {"SDTMDOM": ["NV"], "SDTMVAR": "NVLAT"}, {"SDTMDOM": ["NV"], "SDTMVAR": "NVLNKID"}, {"SDTMDOM": ["NV"], "SDTMVAR": "NVLOC"}, {"SDTMDOM": ["NV"], "SDTMVAR": "NVMETHOD"}, {"SDTMDOM": ["NV"], "SDTMVAR": "NVORRES"}, {"SDTMDOM": ["NV"], "SDTMVAR": "NVORRESU"}, {"SDTMDOM": ["NV"], "SDTMVAR": "NVREASND"}, {"SDTMDOM": ["NV"], "SDTMVAR": "NVREFID"}, {"SDTMDOM": ["NV"], "SDTMVAR": "NVRFTDTC"}, {"SDTMDOM": ["NV"], "SDTMVAR": "NVSCAT"}, {"SDTMDOM": ["NV"], "SDTMVAR": "NVSEQ"}, {"SDTMDOM": ["NV"], "SDTMVAR": "NVSPID"}, {"SDTMDOM": ["NV"], "SDTMVAR": "NVSTAT"}, {"SDTMDOM": ["NV"], "SDTMVAR": "NVSTRESC"}, {"SDTMDOM": ["NV"], "SDTMVAR": "NVSTRESN"}, {"SDTMDOM": ["NV"], "SDTMVAR": "NVSTRESU"}, {"SDTMDOM": ["NV"], "SDTMVAR": "NVTEST"}, {"SDTMDOM": ["NV"], "SDTMVAR": "NVTESTCD"}, {"SDTMDOM": ["NV"], "SDTMVAR": "NVTPT"}, {"SDTMDOM": ["NV"], "SDTMVAR": "NVTPTNUM"}, {"SDTMDOM": ["NV"], "SDTMVAR": "NVTPTREF"}, {"SDTMDOM": ["OE"], "SDTMVAR": "OEACPTFL"}, {"SDTMDOM": ["OE"], "SDTMVAR": "OEBLFL"}, {"SDTMDOM": ["OE"], "SDTMVAR": "OECAT"}, {"SDTMDOM": ["OE"], "SDTMVAR": "OEDIR"}, {"SDTMDOM": ["OE"], "SDTMVAR": "OEDRVFL"}, {"SDTMDOM": ["OE"], "SDTMVAR": "OEDTC"}, {"SDTMDOM": ["OE"], "SDTMVAR": "OEDY"}, {"SDTMDOM": ["OE"], "SDTMVAR": "OEEVAL"}, {"SDTMDOM": ["OE"], "SDTMVAR": "OEEVALID"}, {"SDTMDOM": ["OE"], "SDTMVAR": "OEGRPID"}, {"SDTMDOM": ["OE"], "SDTMVAR": "OELAT"}, {"SDTMDOM": ["OE"], "SDTMVAR": "OELNKID"}, {"SDTMDOM": ["OE"], "SDTMVAR": "OELOC"}, {"SDTMDOM": ["OE"], "SDTMVAR": "OEMETHOD"}, {"SDTMDOM": ["OE"], "SDTMVAR": "OENRIND"}, {"SDTMDOM": ["OE"], "SDTMVAR": "OEORNRHI"}, {"SDTMDOM": ["OE"], "SDTMVAR": "OEORNRLO"}, {"SDTMDOM": ["OE"], "SDTMVAR": "OEORRES"}, {"SDTMDOM": ["OE"], "SDTMVAR": "OEORRESU"}, {"SDTMDOM": ["OE"], "SDTMVAR": "OEPORTOT"}, {"SDTMDOM": ["OE"], "SDTMVAR": "OEREASND"}, {"SDTMDOM": ["SUPPOE"], "SDTMVAR": "OEREPNUM"}, {"SDTMDOM": ["OE"], "SDTMVAR": "OERESCAT"}, {"SDTMDOM": ["OE"], "SDTMVAR": "OERUNID"}, {"SDTMDOM": ["OE"], "SDTMVAR": "OESCAT"}, {"SDTMDOM": ["OE"], "SDTMVAR": "OESEQ"}, {"SDTMDOM": ["SUPPOE"], "SDTMVAR": "OESP"}, {"SDTMDOM": ["OE"], "SDTMVAR": "OESTAT"}, {"SDTMDOM": ["OE"], "SDTMVAR": "OESTNRC"}, {"SDTMDOM": ["OE"], "SDTMVAR": "OESTNRHI"}, {"SDTMDOM": ["OE"], "SDTMVAR": "OESTNRLO"}, {"SDTMDOM": ["OE"], "SDTMVAR": "OESTRESC"}, {"SDTMDOM": ["OE"], "SDTMVAR": "OESTRESN"}, {"SDTMDOM": ["OE"], "SDTMVAR": "OESTRESU"}, {"SDTMDOM": ["OE"], "SDTMVAR": "OETEST"}, {"SDTMDOM": ["OE"], "SDTMVAR": "OETESTCD"}, {"SDTMDOM": ["OE"], "SDTMVAR": "OETPT"}, {"SDTMDOM": ["OE"], "SDTMVAR": "OETPTNUM"}, {"SDTMDOM": ["OE"], "SDTMVAR": "OETPTREF"}, {"SDTMDOM": ["OE"], "SDTMVAR": "OETSTDTL"}, {"SDTMDOM": ["OE"], "SDTMVAR": "OEXFN"}, {"SDTMDOM": ["PC"], "SDTMVAR": "PCCAT"}, {"SDTMDOM": ["PC"], "SDTMVAR": "PCDRVFL"}, {"SDTMDOM": ["PC"], "SDTMVAR": "PCDTC"}, {"SDTMDOM": ["PC"], "SDTMVAR": "PCDY"}, {"SDTMDOM": ["PC"], "SDTMVAR": "PCELTM"}, {"SDTMDOM": ["PC"], "SDTMVAR": "PCENDTC"}, {"SDTMDOM": ["PC"], "SDTMVAR": "PCENDY"}, {"SDTMDOM": ["PC"], "SDTMVAR": "PCENRTPT"}, {"SDTMDOM": ["PC"], "SDTMVAR": "PCENTPT"}, {"SDTMDOM": ["PC"], "SDTMVAR": "PCEVLINT"}, {"SDTMDOM": ["PC"], "SDTMVAR": "PCFAST"}, {"SDTMDOM": ["PC"], "SDTMVAR": "PCGRPID"}, {"SDTMDOM": ["PC"], "SDTMVAR": "PCLLOQ"}, {"SDTMDOM": ["PC"], "SDTMVAR": "PCMETHOD"}, {"SDTMDOM": ["PC"], "SDTMVAR": "PCNAM"}, {"SDTMDOM": ["PC"], "SDTMVAR": "PCORRES"}, {"SDTMDOM": ["PC"], "SDTMVAR": "PCORRESU"}, {"SDTMDOM": ["SUPPPC"], "SDTMVAR": "PCPERIOD"}, {"SDTMDOM": ["PC"], "SDTMVAR": "PCREASND"}, {"SDTMDOM": ["PC"], "SDTMVAR": "PCREFID"}, {"SDTMDOM": ["PC"], "SDTMVAR": "PCRFTDTC"}, {"SDTMDOM": ["PC"], "SDTMVAR": "PCSCAT"}, {"SDTMDOM": ["PC"], "SDTMVAR": "PCSEQ"}, {"SDTMDOM": ["PC"], "SDTMVAR": "PCSPCCND"}, {"SDTMDOM": ["PC"], "SDTMVAR": "PCSPEC"}, {"SDTMDOM": ["PC"], "SDTMVAR": "PCSPID"}, {"SDTMDOM": ["PC"], "SDTMVAR": "PCSTAT"}, {"SDTMDOM": ["PC"], "SDTMVAR": "PCSTRESC"}, {"SDTMDOM": ["PC"], "SDTMVAR": "PCSTRESN"}, {"SDTMDOM": ["PC"], "SDTMVAR": "PCSTRESU"}, {"SDTMDOM": ["PC"], "SDTMVAR": "PCTEST"}, {"SDTMDOM": ["PC"], "SDTMVAR": "PCTESTCD"}, {"SDTMDOM": ["PC"], "SDTMVAR": "PCTPT"}, {"SDTMDOM": ["PC"], "SDTMVAR": "PCTPTNUM"}, {"SDTMDOM": ["PC"], "SDTMVAR": "PCTPTREF"}, {"SDTMDOM": ["PC"], "SDTMVAR": "PCULOQ"}, {"SDTMDOM": ["SUPPDM"], "SDTMVAR": "PDPOP"}, {"SDTMDOM": ["SUPPPE"], "SDTMVAR": "PEAENO"}, {"SDTMDOM": ["PE"], "SDTMVAR": "PECAT"}, {"SDTMDOM": ["SUPPPE"], "SDTMVAR": "PECLSIG"}, {"SDTMDOM": ["PE"], "SDTMVAR": "PEDTC"}, {"SDTMDOM": ["PE"], "SDTMVAR": "PEDY"}, {"SDTMDOM": ["PE"], "SDTMVAR": "PEORRES"}, {"SDTMDOM": ["PE"], "SDTMVAR": "PEREASND"}, {"SDTMDOM": ["PE"], "SDTMVAR": "PESCAT "}, {"SDTMDOM": ["PE"], "SDTMVAR": "PESEQ"}, {"SDTMDOM": ["PE"], "SDTMVAR": "PESPID"}, {"SDTMDOM": ["PE"], "SDTMVAR": "PESTAT"}, {"SDTMDOM": ["PE"], "SDTMVAR": "PESTRESC"}, {"SDTMDOM": ["PE"], "SDTMVAR": "PETEST"}, {"SDTMDOM": ["PE"], "SDTMVAR": "PETESTCD"}, {"SDTMDOM": ["PF"], "SDTMVAR": "PFBLFL"}, {"SDTMDOM": ["PF"], "SDTMVAR": "PFCAT"}, {"SDTMDOM": ["PF"], "SDTMVAR": "PFDRVFL"}, {"SDTMDOM": ["PF"], "SDTMVAR": "PFDTC"}, {"SDTMDOM": ["PF"], "SDTMVAR": "PFDY"}, {"SDTMDOM": ["PF"], "SDTMVAR": "PFELTM"}, {"SDTMDOM": ["SUPPPF"], "SDTMVAR": "PFGENLOC"}, {"SDTMDOM": ["SUPPPF"], "SDTMVAR": "PFGENRI"}, {"SDTMDOM": ["PF"], "SDTMVAR": "PFGENSR"}, {"SDTMDOM": ["SUPPPF"], "SDTMVAR": "PFGENTYP"}, {"SDTMDOM": ["PF"], "SDTMVAR": "PFLNKID"}, {"SDTMDOM": ["PF"], "SDTMVAR": "PFMETHOD"}, {"SDTMDOM": ["SUPPPF"], "SDTMVAR": "PFMUTYP"}, {"SDTMDOM": ["PF"], "SDTMVAR": "PFNAM"}, {"SDTMDOM": ["SUPPPF"], "SDTMVAR": "PFNSPCES"}, {"SDTMDOM": ["SUPPPF"], "SDTMVAR": "PFNSTRN"}, {"SDTMDOM": ["SUPPPF"], "SDTMVAR": "PFORREF"}, {"SDTMDOM": ["PF"], "SDTMVAR": "PFORRES"}, {"SDTMDOM": ["PF"], "SDTMVAR": "PFORRESU"}, {"SDTMDOM": ["SUPPPF"], "SDTMVAR": "PFPPTYP"}, {"SDTMDOM": ["PF"], "SDTMVAR": "PFREASND"}, {"SDTMDOM": ["PF"], "SDTMVAR": "PFREFID"}, {"SDTMDOM": ["SUPPPF"], "SDTMVAR": "PFREFSEQ"}, {"SDTMDOM": ["PF"], "SDTMVAR": "PFRESCAT"}, {"SDTMDOM": ["PF"], "SDTMVAR": "PFRFTDTC"}, {"SDTMDOM": ["PF"], "SDTMVAR": "PFSCAT"}, {"SDTMDOM": ["PF"], "SDTMVAR": "PFSEQ"}, {"SDTMDOM": ["PF"], "SDTMVAR": "PFSPEC"}, {"SDTMDOM": ["PF"], "SDTMVAR": "PFSPID"}, {"SDTMDOM": ["PF"], "SDTMVAR": "PFSTAT"}, {"SDTMDOM": ["PF"], "SDTMVAR": "PFSTRESC"}, {"SDTMDOM": ["PF"], "SDTMVAR": "PFSTRESN"}, {"SDTMDOM": ["PF"], "SDTMVAR": "PFSTRESU"}, {"SDTMDOM": ["PF"], "SDTMVAR": "PFTEST"}, {"SDTMDOM": ["PF"], "SDTMVAR": "PFTESTCD"}, {"SDTMDOM": ["PF"], "SDTMVAR": "PFTPT"}, {"SDTMDOM": ["PF"], "SDTMVAR": "PFTPTNUM"}, {"SDTMDOM": ["PF"], "SDTMVAR": "PFTPTREF"}, {"SDTMDOM": ["PF"], "SDTMVAR": "PFTSTDTL"}, {"SDTMDOM": ["PF"], "SDTMVAR": "PFXFN"}, {"SDTMDOM": ["SUPPDM"], "SDTMVAR": "PGPOP"}, {"SDTMDOM": ["SUPPDM"], "SDTMVAR": "PKPDPOP"}, {"SDTMDOM": ["SUPPDM"], "SDTMVAR": "PKPOP"}, {"SDTMDOM": ["PP"], "SDTMVAR": "PPCAT"}, {"SDTMDOM": ["PP"], "SDTMVAR": "PPENINT"}, {"SDTMDOM": ["PP"], "SDTMVAR": "PPGRPID"}, {"SDTMDOM": ["PP"], "SDTMVAR": "PPORRES"}, {"SDTMDOM": ["PP"], "SDTMVAR": "PPORRESU"}, {"SDTMDOM": ["SUPPPP"], "SDTMVAR": "PPPERIOD"}, {"SDTMDOM": ["PP"], "SDTMVAR": "PPREASND"}, {"SDTMDOM": ["PP"], "SDTMVAR": "PPRFTDTC"}, {"SDTMDOM": ["SUPPDM"], "SDTMVAR": "PPROT"}, {"SDTMDOM": ["PP"], "SDTMVAR": "PPSCAT"}, {"SDTMDOM": ["PP"], "SDTMVAR": "PPSEQ"}, {"SDTMDOM": ["PP"], "SDTMVAR": "PPSPEC"}, {"SDTMDOM": ["PP"], "SDTMVAR": "PPSTAT"}, {"SDTMDOM": ["PP"], "SDTMVAR": "PPSTINT"}, {"SDTMDOM": ["PP"], "SDTMVAR": "PPSTRESC"}, {"SDTMDOM": ["PP"], "SDTMVAR": "PPSTRESN"}, {"SDTMDOM": ["PP"], "SDTMVAR": "PPSTRESU"}, {"SDTMDOM": ["PP"], "SDTMVAR": "PPTEST"}, {"SDTMDOM": ["PP"], "SDTMVAR": "PPTESTCD"}, {"SDTMDOM": ["SUPPPR"], "SDTMVAR": "PRAENO"}, {"SDTMDOM": ["SUPPPR"], "SDTMVAR": "PRANA"}, {"SDTMDOM": ["SUPPPR"], "SDTMVAR": "PRBDSYCD"}, {"SDTMDOM": ["SUPPPR"], "SDTMVAR": "PRBODSYS"}, {"SDTMDOM": ["PR"], "SDTMVAR": "PRCAT"}, {"SDTMDOM": ["PR"], "SDTMVAR": "PRDECOD"}, {"SDTMDOM": ["SUPPPR"], "SDTMVAR": "PRDECOD2"}, {"SDTMDOM": ["SUPPPR"], "SDTMVAR": "PRDICTV"}, {"SDTMDOM": ["SUPPPR"], "SDTMVAR": "PRDICTV2"}, {"SDTMDOM": ["PR"], "SDTMVAR": "PRDOSE"}, {"SDTMDOM": ["PR"], "SDTMVAR": "PRDOSTXT"}, {"SDTMDOM": ["PR"], "SDTMVAR": "PRDOSU"}, {"SDTMDOM": ["PR"], "SDTMVAR": "PRELTM"}, {"SDTMDOM": ["PR"], "SDTMVAR": "PRENDTC"}, {"SDTMDOM": ["PR"], "SDTMVAR": "PRENDY"}, {"SDTMDOM": ["PR"], "SDTMVAR": "PRENRF"}, {"SDTMDOM": ["PR"], "SDTMVAR": "PRENRTPT"}, {"SDTMDOM": ["PR"], "SDTMVAR": "PRENTPT"}, {"SDTMDOM": ["SUPPPR"], "SDTMVAR": "PRHLGT"}, {"SDTMDOM": ["SUPPPR"], "SDTMVAR": "PRHLGTCD"}, {"SDTMDOM": ["SUPPPR"], "SDTMVAR": "PRHLT"}, {"SDTMDOM": ["SUPPPR"], "SDTMVAR": "PRHLTCD"}, {"SDTMDOM": ["PR"], "SDTMVAR": "PRINDC"}, {"SDTMDOM": ["SUPPPR"], "SDTMVAR": "PRINDC1"}, {"SDTMDOM": ["SUPPPR"], "SDTMVAR": "PRINDC2"}, {"SDTMDOM": ["SUPPPR"], "SDTMVAR": "PRINDC3"}, {"SDTMDOM": ["SUPPPR"], "SDTMVAR": "PRINDC4"}, {"SDTMDOM": ["SUPPPR"], "SDTMVAR": "PRINDC5"}, {"SDTMDOM": ["SUPPPR"], "SDTMVAR": "PRISO"}, {"SDTMDOM": ["SUPPPR"], "SDTMVAR": "PRLLT"}, {"SDTMDOM": ["SUPPPR"], "SDTMVAR": "PRLLTCD"}, {"SDTMDOM": ["PR"], "SDTMVAR": "PRLNKID"}, {"SDTMDOM": ["PR"], "SDTMVAR": "PRLOC"}, {"SDTMDOM": ["SUPPPR"], "SDTMVAR": "PRMHNO"}, {"SDTMDOM": ["PR"], "SDTMVAR": "PROCCUR"}, {"SDTMDOM": ["PR"], "SDTMVAR": "PRPRESP"}, {"SDTMDOM": ["SUPPPR"], "SDTMVAR": "PRPTCD"}, {"SDTMDOM": ["SUPPPR"], "SDTMVAR": "PRRECNO"}, {"SDTMDOM": ["PR"], "SDTMVAR": "PRREFID"}, {"SDTMDOM": ["PR"], "SDTMVAR": "PRSCAT"}, {"SDTMDOM": ["PR"], "SDTMVAR": "PRSEQ"}, {"SDTMDOM": ["SUPPPR"], "SDTMVAR": "PRSEQ1"}, {"SDTMDOM": ["SUPPPR"], "SDTMVAR": "PRSEQ2"}, {"SDTMDOM": ["SUPPPR"], "SDTMVAR": "PRSOC"}, {"SDTMDOM": ["SUPPPR"], "SDTMVAR": "PRSOCCD"}, {"SDTMDOM": ["SUPPPR"], "SDTMVAR": "PRSPEC"}, {"SDTMDOM": ["SUPPPR"], "SDTMVAR": "PRSPEOTH"}, {"SDTMDOM": ["PR"], "SDTMVAR": "PRSPID"}, {"SDTMDOM": ["PR"], "SDTMVAR": "PRSTAT"}, {"SDTMDOM": ["PR"], "SDTMVAR": "PRSTDTC"}, {"SDTMDOM": ["PR"], "SDTMVAR": "PRSTDY"}, {"SDTMDOM": ["PR"], "SDTMVAR": "PRTPT"}, {"SDTMDOM": ["PR"], "SDTMVAR": "PRTPTNUM"}, {"SDTMDOM": ["PR"], "SDTMVAR": "PRTPTREF"}, {"SDTMDOM": ["PR"], "SDTMVAR": "PRTRT"}, {"SDTMDOM": ["SUPPPR"], "SDTMVAR": "PRTRTINT"}, {"SDTMDOM": ["SUPPPR"], "SDTMVAR": "PRTYPE"}, {"SDTMDOM": ["QS", "QSCQ", "QSEG", "QSKN", "QSPI", "QSMR"], "SDTMVAR": "QSBLFL"}, {"SDTMDOM": ["QS", "QSCQ", "QSEG", "QSKN", "QSPI", "QSMR"], "SDTMVAR": "QSCAT"}, {"SDTMDOM": ["QS", "QSCQ", "QSEG", "QSKN", "QSPI", "QSMR"], "SDTMVAR": "QSDRVFL"}, {"SDTMDOM": ["QS", "QSCQ", "QSEG", "QSKN", "QSPI", "QSMR"], "SDTMVAR": "QSDTC"}, {"SDTMDOM": ["QS", "QSCQ", "QSEG", "QSKN", "QSPI", "QSMR"], "SDTMVAR": "QSDY"}, {"SDTMDOM": ["QS", "QSCQ", "QSEG", "QSKN", "QSPI", "QSMR"], "SDTMVAR": "QSELTM"}, {"SDTMDOM": ["QS", "QSCQ", "QSEG", "QSKN", "QSPI", "QSMR"], "SDTMVAR": "QSEVAL"}, {"SDTMDOM": ["QS", "QSCQ", "QSEG", "QSKN", "QSPI", "QSMR"], "SDTMVAR": "QSEVLINT"}, {"SDTMDOM": ["QS", "QSCQ", "QSEG", "QSKN", "QSPI", "QSMR"], "SDTMVAR": "QSGRPID"}, {"SDTMDOM": ["QSPI", "QSMR"], "SDTMVAR": "QSLOC"}, {"SDTMDOM": ["QS", "QSCQ", "QSEG", "QSKN", "QSPI", "QSMR"], "SDTMVAR": "QSMETHOD"}, {"SDTMDOM": ["QS", "QSCQ", "QSEG", "QSKN", "QSPI", "QSMR"], "SDTMVAR": "QSORRES"}, {"SDTMDOM": ["QS", "QSCQ", "QSEG", "QSKN", "QSPI", "QSMR"], "SDTMVAR": "QSORRESU"}, {"SDTMDOM": ["QS", "QSCQ", "QSEG", "QSKN", "QSPI", "QSMR"], "SDTMVAR": "QSREASND"}, {"SDTMDOM": ["QS", "QSCQ", "QSEG", "QSKN", "QSPI", "QSMR"], "SDTMVAR": "QSREFID"}, {"SDTMDOM": ["QS", "QSCQ", "QSEG", "QSKN", "QSPI", "QSMR"], "SDTMVAR": "QSRFTDTC"}, {"SDTMDOM": ["QS", "QSCQ", "QSEG", "QSKN", "QSPI", "QSMR"], "SDTMVAR": "QSSCAT"}, {"SDTMDOM": ["QS", "QSCQ", "QSEG", "QSKN", "QSPI", "QSMR"], "SDTMVAR": "QSSEQ"}, {"SDTMDOM": ["QS", "QSCQ", "QSEG", "QSKN", "QSPI", "QSMR"], "SDTMVAR": "QSSPID"}, {"SDTMDOM": ["QS", "QSCQ", "QSEG", "QSKN", "QSPI", "QSMR"], "SDTMVAR": "QSSTAT"}, {"SDTMDOM": ["QS", "QSCQ", "QSEG", "QSKN", "QSPI", "QSMR"], "SDTMVAR": "QSSTRESC"}, {"SDTMDOM": ["QS", "QSCQ", "QSEG", "QSKN", "QSPI", "QSMR"], "SDTMVAR": "QSSTRESN"}, {"SDTMDOM": ["QS", "QSCQ", "QSEG", "QSKN", "QSPI", "QSMR"], "SDTMVAR": "QSSTRESU"}, {"SDTMDOM": ["QS", "QSCQ", "QSEG", "QSKN", "QSPI", "QSMR"], "SDTMVAR": "QSTEST"}, {"SDTMDOM": ["QS", "QSCQ", "QSEG", "QSKN", "QSPI", "QSMR"], "SDTMVAR": "QSTESTCD"}, {"SDTMDOM": ["QS", "QSCQ", "QSEG", "QSKN", "QSPI", "QSMR"], "SDTMVAR": "QSTPT"}, {"SDTMDOM": ["QS", "QSCQ", "QSEG", "QSKN", "QSPI", "QSMR"], "SDTMVAR": "QSTPTNUM"}, {"SDTMDOM": ["QS", "QSCQ", "QSEG", "QSKN", "QSPI", "QSMR"], "SDTMVAR": "QSTPTREF"}, {"SDTMDOM": ["DM"], "SDTMVAR": "RACE"}, {"SDTMDOM": ["SUPPDM"], "SDTMVAR": "RACE1"}, {"SDTMDOM": ["SUPPDM"], "SDTMVAR": "RACE2"}, {"SDTMDOM": ["SUPPDM"], "SDTMVAR": "RACE3"}, {"SDTMDOM": ["SUPPDM"], "SDTMVAR": "RACE4"}, {"SDTMDOM": ["SUPPDM"], "SDTMVAR": "RACE5"}, {"SDTMDOM": ["SUPPDM"], "SDTMVAR": "RACEOR"}, {"SDTMDOM": ["SUPPDM"], "SDTMVAR": "RANDOM"}, {"SDTMDOM": ["IVRS"], "SDTMVAR": "RDALDTC"}, {"SDTMDOM": ["IVRS", "RAND"], "SDTMVAR": "RDALGDTC"}, {"SDTMDOM": ["IVRS", "RAND"], "SDTMVAR": "RDARM"}, {"SDTMDOM": ["RAND"], "SDTMVAR": "RDARMN"}, {"SDTMDOM": ["IVRS"], "SDTMVAR": "RDBKDDTC"}, {"SDTMDOM": ["IVRS"], "SDTMVAR": "RDBKUNB"}, {"SDTMDOM": ["IVRS"], "SDTMVAR": "RDBKWHO"}, {"SDTMDOM": ["IVRS", "RAND"], "SDTMVAR": "RDBLKNB"}, {"SDTMDOM": ["IVRS"], "SDTMVAR": "RDGROUP1"}, {"SDTMDOM": ["IVRS"], "SDTMVAR": "RDGROUP2"}, {"SDTMDOM": ["IVRS"], "SDTMVAR": "RDGROUP3"}, {"SDTMDOM": ["CO", "RELREC"], "SDTMVAR": "RDOMAIN"}, {"SDTMDOM": ["RAND"], "SDTMVAR": "RDPERIOD"}, {"SDTMDOM": ["IVRS", "RAND"], "SDTMVAR": "RDRAND"}, {"SDTMDOM": ["IVRS", "RAND"], "SDTMVAR": "RDSEQNB"}, {"SDTMDOM": ["IVRS"], "SDTMVAR": "RDSIDE"}, {"SDTMDOM": ["IVRS", "RAND"], "SDTMVAR": "RDSTRAT1"}, {"SDTMDOM": ["IVRS", "RAND"], "SDTMVAR": "RDSTRAT2"}, {"SDTMDOM": ["IVRS", "RAND"], "SDTMVAR": "RDSTRAT3"}, {"SDTMDOM": ["IVRS", "RAND"], "SDTMVAR": "RDSTRAT4"}, {"SDTMDOM": ["IVRS", "RAND"], "SDTMVAR": "RDSTRAT5"}, {"SDTMDOM": ["IVRS"], "SDTMVAR": "RDTTCAT"}, {"SDTMDOM": ["IVRS"], "SDTMVAR": "RDTTNBX"}, {"SDTMDOM": ["IVRS"], "SDTMVAR": "RDVISREF"}, {"SDTMDOM": ["RE"], "SDTMVAR": "REBLFL"}, {"SDTMDOM": ["RE"], "SDTMVAR": "RECAT"}, {"SDTMDOM": ["RE"], "SDTMVAR": "REDIR"}, {"SDTMDOM": ["RE"], "SDTMVAR": "REDRVFL"}, {"SDTMDOM": ["RE"], "SDTMVAR": "REDTC"}, {"SDTMDOM": ["RE"], "SDTMVAR": "REDY"}, {"SDTMDOM": ["RE"], "SDTMVAR": "REELTM"}, {"SDTMDOM": ["RE"], "SDTMVAR": "REEVAL"}, {"SDTMDOM": ["RE"], "SDTMVAR": "REEVALID"}, {"SDTMDOM": ["SUPPLB", "SUPPLBUS"], "SDTMVAR": "REF_HIGH"}, {"SDTMDOM": ["SUPPLB", "SUPPLBUS"], "SDTMVAR": "REF_LOW"}, {"SDTMDOM": ["RE"], "SDTMVAR": "REGRPID"}, {"SDTMDOM": ["SUPPRE"], "SDTMVAR": "REIRESFL"}, {"SDTMDOM": ["RE"], "SDTMVAR": "RELAT"}, {"SDTMDOM": ["RELREC"], "SDTMVAR": "RELID"}, {"SDTMDOM": ["RE"], "SDTMVAR": "RELNKGRP"}, {"SDTMDOM": ["RE"], "SDTMVAR": "RELNKID"}, {"SDTMDOM": ["RE"], "SDTMVAR": "RELOBXFL"}, {"SDTMDOM": ["RE"], "SDTMVAR": "RELOC"}, {"SDTMDOM": ["RELREC"], "SDTMVAR": "RELTYPE"}, {"SDTMDOM": ["RE"], "SDTMVAR": "REMETHOD"}, {"SDTMDOM": ["RE", "SUPPRE"], "SDTMVAR": "REORREF"}, {"SDTMDOM": ["RE"], "SDTMVAR": "REORRES"}, {"SDTMDOM": ["RE"], "SDTMVAR": "REORRESU"}, {"SDTMDOM": ["RE"], "SDTMVAR": "REPOS"}, {"SDTMDOM": ["RE"], "SDTMVAR": "REREASND"}, {"SDTMDOM": ["RE"], "SDTMVAR": "REREFID"}, {"SDTMDOM": ["RE"], "SDTMVAR": "REREPNUM"}, {"SDTMDOM": ["RE"], "SDTMVAR": "RERFTDTC"}, {"SDTMDOM": ["RE"], "SDTMVAR": "RESCAT"}, {"SDTMDOM": ["RE"], "SDTMVAR": "RESEQ"}, {"SDTMDOM": ["RE"], "SDTMVAR": "RESPID"}, {"SDTMDOM": ["RE"], "SDTMVAR": "RESTAT"}, {"SDTMDOM": ["RE"], "SDTMVAR": "RESTREFC"}, {"SDTMDOM": ["RE", "SUPPRE"], "SDTMVAR": "RESTREFN"}, {"SDTMDOM": ["RE"], "SDTMVAR": "RESTRESC"}, {"SDTMDOM": ["RE"], "SDTMVAR": "RESTRESN"}, {"SDTMDOM": ["RE"], "SDTMVAR": "RESTRESU"}, {"SDTMDOM": ["RE"], "SDTMVAR": "RETEST"}, {"SDTMDOM": ["RE"], "SDTMVAR": "RETESTCD"}, {"SDTMDOM": ["RE"], "SDTMVAR": "RETPT"}, {"SDTMDOM": ["RE"], "SDTMVAR": "RETPTNUM"}, {"SDTMDOM": ["RE"], "SDTMVAR": "RETPTREF"}, {"SDTMDOM": ["DM"], "SDTMVAR": "RFENDTC"}, {"SDTMDOM": ["DM"], "SDTMVAR": "RFICDTC"}, {"SDTMDOM": ["DM"], "SDTMVAR": "RFPENDTC"}, {"SDTMDOM": ["DM"], "SDTMVAR": "RFSTDTC"}, {"SDTMDOM": ["DM"], "SDTMVAR": "RFXENDTC"}, {"SDTMDOM": ["DM"], "SDTMVAR": "RFXSTDTC"}, {"SDTMDOM": ["RP"], "SDTMVAR": "RPBLFL"}, {"SDTMDOM": ["RP"], "SDTMVAR": "RPCAT"}, {"SDTMDOM": ["RP"], "SDTMVAR": "RPDRVFL"}, {"SDTMDOM": ["RP"], "SDTMVAR": "RPDTC"}, {"SDTMDOM": ["RP"], "SDTMVAR": "RPDY"}, {"SDTMDOM": ["RP"], "SDTMVAR": "RPGRPID"}, {"SDTMDOM": ["RP"], "SDTMVAR": "RPORRES"}, {"SDTMDOM": ["RP"], "SDTMVAR": "RPORRESU"}, {"SDTMDOM": ["RP"], "SDTMVAR": "RPREASND"}, {"SDTMDOM": ["RP"], "SDTMVAR": "RPREFID"}, {"SDTMDOM": ["RP"], "SDTMVAR": "RPSCAT"}, {"SDTMDOM": ["RP"], "SDTMVAR": "RPSEQ"}, {"SDTMDOM": ["RP"], "SDTMVAR": "RPSPID"}, {"SDTMDOM": ["RP"], "SDTMVAR": "RPSTAT"}, {"SDTMDOM": ["RP"], "SDTMVAR": "RPSTRESC"}, {"SDTMDOM": ["RP"], "SDTMVAR": "RPSTRESN"}, {"SDTMDOM": ["RP"], "SDTMVAR": "RPSTRESU"}, {"SDTMDOM": ["SUPPDM"], "SDTMVAR": "RPSUBJID"}, {"SDTMDOM": ["RP"], "SDTMVAR": "RPTEST"}, {"SDTMDOM": ["RP"], "SDTMVAR": "RPTESTCD"}, {"SDTMDOM": ["RS"], "SDTMVAR": "RSACPTFL"}, {"SDTMDOM": ["RS"], "SDTMVAR": "RSBLFL"}, {"SDTMDOM": ["RS"], "SDTMVAR": "RSCAT"}, {"SDTMDOM": ["SUPPRS"], "SDTMVAR": "RSCYCVID"}, {"SDTMDOM": ["RS"], "SDTMVAR": "RSDRVFL"}, {"SDTMDOM": ["RS"], "SDTMVAR": "RSDTC"}, {"SDTMDOM": ["RS"], "SDTMVAR": "RSDY"}, {"SDTMDOM": ["RS"], "SDTMVAR": "RSEVAL"}, {"SDTMDOM": ["RS"], "SDTMVAR": "RSEVALID"}, {"SDTMDOM": ["RS"], "SDTMVAR": "RSLNKGRP"}, {"SDTMDOM": ["RS"], "SDTMVAR": "RSLNKID"}, {"SDTMDOM": ["SUPPRS"], "SDTMVAR": "RSLOC1"}, {"SDTMDOM": ["SUPPRS"], "SDTMVAR": "RSNESP"}, {"SDTMDOM": ["SUPPRS"], "SDTMVAR": "RSNL"}, {"SDTMDOM": ["RS"], "SDTMVAR": "RSORRES"}, {"SDTMDOM": ["RS"], "SDTMVAR": "RSORRESU"}, {"SDTMDOM": ["RS"], "SDTMVAR": "RSRESCAT"}, {"SDTMDOM": ["RS"], "SDTMVAR": "RSSEQ"}, {"SDTMDOM": ["RS"], "SDTMVAR": "RSSTAT"}, {"SDTMDOM": ["RS"], "SDTMVAR": "RSSTRESC"}, {"SDTMDOM": ["RS"], "SDTMVAR": "RSSTRESN"}, {"SDTMDOM": ["RS"], "SDTMVAR": "RSTEST"}, {"SDTMDOM": ["RS"], "SDTMVAR": "RSTESTCD"}, {"SDTMDOM": ["APAE", "APMH"], "SDTMVAR": "RSUBJID"}, {"SDTMDOM": ["SUPPDM"], "SDTMVAR": "SAFETY"}, {"SDTMDOM": ["SC"], "SDTMVAR": "SCCAT"}, {"SDTMDOM": ["SC"], "SDTMVAR": "SCORRES"}, {"SDTMDOM": ["SC"], "SDTMVAR": "SCORRESU"}, {"SDTMDOM": ["SC"], "SDTMVAR": "SCSEQ"}, {"SDTMDOM": ["SC"], "SDTMVAR": "SCSTRESC"}, {"SDTMDOM": ["SC"], "SDTMVAR": "SCSTRESN"}, {"SDTMDOM": ["SC"], "SDTMVAR": "SCSTRESU"}, {"SDTMDOM": ["SC"], "SDTMVAR": "SCTEST"}, {"SDTMDOM": ["SC"], "SDTMVAR": "SCTESTCD"}, {"SDTMDOM": ["SE"], "SDTMVAR": "SEENDTC"}, {"SDTMDOM": ["SE"], "SDTMVAR": "SEENDY"}, {"SDTMDOM": ["SE"], "SDTMVAR": "SESEQ"}, {"SDTMDOM": ["SE"], "SDTMVAR": "SESTDTC"}, {"SDTMDOM": ["SE"], "SDTMVAR": "SESTDY"}, {"SDTMDOM": ["SE"], "SDTMVAR": "SEUPDES"}, {"SDTMDOM": ["DM"], "SDTMVAR": "SEX"}, {"SDTMDOM": ["DM"], "SDTMVAR": "SITEID"}, {"SDTMDOM": ["DE", "PF", "RE"], "SDTMVAR": "SPDEVID"}, {"SDTMDOM": ["SR"], "SDTMVAR": "SRCAT"}, {"SDTMDOM": ["SR"], "SDTMVAR": "SRDTC"}, {"SDTMDOM": ["SR"], "SDTMVAR": "SRDY"}, {"SDTMDOM": ["APAE", "APMH"], "SDTMVAR": "SREL"}, {"SDTMDOM": ["SR"], "SDTMVAR": "SRELTM"}, {"SDTMDOM": ["SR"], "SDTMVAR": "SREVAL"}, {"SDTMDOM": ["SR"], "SDTMVAR": "SRGRPID"}, {"SDTMDOM": ["SR"], "SDTMVAR": "SRLAT"}, {"SDTMDOM": ["SR"], "SDTMVAR": "SRLOC"}, {"SDTMDOM": ["SR"], "SDTMVAR": "SRMETHOD"}, {"SDTMDOM": ["SR"], "SDTMVAR": "SRNAM"}, {"SDTMDOM": ["SR"], "SDTMVAR": "SROBJ"}, {"SDTMDOM": ["SR"], "SDTMVAR": "SRORRES"}, {"SDTMDOM": ["SR"], "SDTMVAR": "SRORRESU"}, {"SDTMDOM": ["SR"], "SDTMVAR": "SRREASND"}, {"SDTMDOM": ["SR"], "SDTMVAR": "SRREFID"}, {"SDTMDOM": ["SR"], "SDTMVAR": "SRRFTDTC"}, {"SDTMDOM": ["SR"], "SDTMVAR": "SRSCAT"}, {"SDTMDOM": ["SR"], "SDTMVAR": "SRSEQ"}, {"SDTMDOM": ["SR"], "SDTMVAR": "SRSPEC"}, {"SDTMDOM": ["SR"], "SDTMVAR": "SRSPID"}, {"SDTMDOM": ["SR"], "SDTMVAR": "SRSTAT"}, {"SDTMDOM": ["SR"], "SDTMVAR": "SRSTRESC"}, {"SDTMDOM": ["SR"], "SDTMVAR": "SRSTRESN"}, {"SDTMDOM": ["SR"], "SDTMVAR": "SRSTRESU"}, {"SDTMDOM": ["SR"], "SDTMVAR": "SRTEST"}, {"SDTMDOM": ["SR"], "SDTMVAR": "SRTESTCD"}, {"SDTMDOM": ["SR"], "SDTMVAR": "SRTPT"}, {"SDTMDOM": ["SR"], "SDTMVAR": "SRTPTNUM"}, {"SDTMDOM": ["SR"], "SDTMVAR": "SRTPTREF"}, {"SDTMDOM": ["SS"], "SDTMVAR": "SSDTC"}, {"SDTMDOM": ["SS"], "SDTMVAR": "SSDY"}, {"SDTMDOM": ["SUPPSS"], "SDTMVAR": "SSMTHDCT"}, {"SDTMDOM": ["SUPPSS"], "SDTMVAR": "SSMTHOTH"}, {"SDTMDOM": ["SS"], "SDTMVAR": "SSORRES"}, {"SDTMDOM": ["SS"], "SDTMVAR": "SSSEQ"}, {"SDTMDOM": ["SS"], "SDTMVAR": "SSSTRESC"}, {"SDTMDOM": ["SS"], "SDTMVAR": "SSTEST"}, {"SDTMDOM": ["SS"], "SDTMVAR": "SSTESTCD"}, {"SDTMDOM": ["SUPPDM"], "SDTMVAR": "STRATUM"}, {"SDTMDOM": ["SUPPDM"], "SDTMVAR": "STRATUM2"}, {"SDTMDOM": ["SUPPDM"], "SDTMVAR": "STRATUM3"}, {"SDTMDOM": ["SUPPDM"], "SDTMVAR": "STRATUM4"}, {"SDTMDOM": ["SUPPDM"], "SDTMVAR": "STRATUM5"}, {"SDTMDOM": ["AE", "AG", "APAE", "APMH", "CC", "CCLN", "CE", "CI", "CM", "CO", "CV", "DA", "DD", "DE", "DM", "DS", "DV", "EC", "EG", "EX", "FA", "FAAE", "FACE", "FAPR", "FARS", "FT", "HO", "IE", "IS", "IVRS", "LB", "LBUS", "LDV", "MH", "MI", "MK", "ML", "MO", "NV", "OE", "PC", "PE", "PF", "PP", "PR", "QS", "QSCQ", "QSEG", "QSKN", "QSPI", "QSMR", "RAND", "RE", "RELREC", "RP", "RS", "SC", "SE", "SR", "SS", "SU", "SV", "TA", "TD", "TE", "TI", "TR", "TS", "TU", "TV", "VS"], "SDTMVAR": "STUDYID"}, {"SDTMDOM": ["DM"], "SDTMVAR": "SUBJID"}, {"SDTMDOM": ["SU"], "SDTMVAR": "SUCAT"}, {"SDTMDOM": ["SU"], "SDTMVAR": "SUDOSE"}, {"SDTMDOM": ["SU"], "SDTMVAR": "SUDOSFRQ"}, {"SDTMDOM": ["SU"], "SDTMVAR": "SUDOSTXT"}, {"SDTMDOM": ["SU"], "SDTMVAR": "SUDOSU"}, {"SDTMDOM": ["SU"], "SDTMVAR": "SUDUR"}, {"SDTMDOM": ["SU"], "SDTMVAR": "SUENDTC"}, {"SDTMDOM": ["SU"], "SDTMVAR": "SUENDY"}, {"SDTMDOM": ["SU"], "SDTMVAR": "SUENRTPT"}, {"SDTMDOM": ["SU"], "SDTMVAR": "SUENTPT"}, {"SDTMDOM": ["SUPPSU"], "SDTMVAR": "SUNCF"}, {"SDTMDOM": ["SU"], "SDTMVAR": "SUOCCUR"}, {"SDTMDOM": ["SU"], "SDTMVAR": "SUPRESP"}, {"SDTMDOM": ["SU"], "SDTMVAR": "SUSEQ"}, {"SDTMDOM": ["SU"], "SDTMVAR": "SUSTDTC"}, {"SDTMDOM": ["SU"], "SDTMVAR": "SUSTDY"}, {"SDTMDOM": ["SU"], "SDTMVAR": "SUSTRTPT"}, {"SDTMDOM": ["SU"], "SDTMVAR": "SUSTTPT"}, {"SDTMDOM": ["SU"], "SDTMVAR": "SUTRT"}, {"SDTMDOM": ["SV"], "SDTMVAR": "SVENDTC"}, {"SDTMDOM": ["SV"], "SDTMVAR": "SVENDY"}, {"SDTMDOM": ["SUPPSV"], "SDTMVAR": "SVMTHDCT"}, {"SDTMDOM": ["SV"], "SDTMVAR": "SVSTDTC"}, {"SDTMDOM": ["SV"], "SDTMVAR": "SVSTDY"}, {"SDTMDOM": ["SV"], "SDTMVAR": "SVUPDES"}, {"SDTMDOM": ["TA"], "SDTMVAR": "TABRANCH"}, {"SDTMDOM": ["RE", "SE", "TA"], "SDTMVAR": "TAETORD"}, {"SDTMDOM": ["TA"], "SDTMVAR": "TATRANS"}, {"SDTMDOM": ["TD"], "SDTMVAR": "TDANCVAR"}, {"SDTMDOM": ["TD"], "SDTMVAR": "TDMAXPAI"}, {"SDTMDOM": ["TD"], "SDTMVAR": "TDMINPAI"}, {"SDTMDOM": ["TD"], "SDTMVAR": "TDNUMRPT"}, {"SDTMDOM": ["TD"], "SDTMVAR": "TDORDER"}, {"SDTMDOM": ["TD"], "SDTMVAR": "TDSTOFF"}, {"SDTMDOM": ["TD"], "SDTMVAR": "TDTGTPAI"}, {"SDTMDOM": ["TE"], "SDTMVAR": "TEDUR"}, {"SDTMDOM": ["TE"], "SDTMVAR": "TEENRL"}, {"SDTMDOM": ["TE"], "SDTMVAR": "TESTRL"}, {"SDTMDOM": ["TI"], "SDTMVAR": "TIRL"}, {"SDTMDOM": ["TI"], "SDTMVAR": "TIVERS"}, {"SDTMDOM": ["TR"], "SDTMVAR": "TRACPTFL"}, {"SDTMDOM": ["TR"], "SDTMVAR": "TRBLFL"}, {"SDTMDOM": ["SUPPTR"], "SDTMVAR": "TRCYCVID"}, {"SDTMDOM": ["TR"], "SDTMVAR": "TRDRVFL"}, {"SDTMDOM": ["TR"], "SDTMVAR": "TRDTC"}, {"SDTMDOM": ["TR"], "SDTMVAR": "TRDY"}, {"SDTMDOM": ["TR"], "SDTMVAR": "TREVAL"}, {"SDTMDOM": ["TR"], "SDTMVAR": "TREVALID"}, {"SDTMDOM": ["TR"], "SDTMVAR": "TRGRPID"}, {"SDTMDOM": ["TR"], "SDTMVAR": "TRLNKID"}, {"SDTMDOM": ["TR"], "SDTMVAR": "TRMETHOD"}, {"SDTMDOM": ["SUPPTR"], "SDTMVAR": "TRMETOTH"}, {"SDTMDOM": ["TR"], "SDTMVAR": "TRORRES"}, {"SDTMDOM": ["TR"], "SDTMVAR": "TRORRESU"}, {"SDTMDOM": ["TR"], "SDTMVAR": "TRSEQ"}, {"SDTMDOM": ["TR"], "SDTMVAR": "TRSPID"}, {"SDTMDOM": ["TR"], "SDTMVAR": "TRSTAT"}, {"SDTMDOM": ["TR"], "SDTMVAR": "TRSTRESC"}, {"SDTMDOM": ["TR"], "SDTMVAR": "TRSTRESN"}, {"SDTMDOM": ["TR"], "SDTMVAR": "TRSTRESU"}, {"SDTMDOM": ["SUPPEX"], "SDTMVAR": "TRTA"}, {"SDTMDOM": ["TR"], "SDTMVAR": "TRTEST"}, {"SDTMDOM": ["TR"], "SDTMVAR": "TRTESTCD"}, {"SDTMDOM": ["SUPPAE"], "SDTMVAR": "TRTLST"}, {"SDTMDOM": ["TS"], "SDTMVAR": "TSGRPID"}, {"SDTMDOM": ["TS"], "SDTMVAR": "TSPARM"}, {"SDTMDOM": ["TS"], "SDTMVAR": "TSPARMCD"}, {"SDTMDOM": ["TS"], "SDTMVAR": "TSSEQ"}, {"SDTMDOM": ["TS"], "SDTMVAR": "TSVAL"}, {"SDTMDOM": ["TS"], "SDTMVAR": "TSVALCD"}, {"SDTMDOM": ["TS"], "SDTMVAR": "TSVALNF"}, {"SDTMDOM": ["TS"], "SDTMVAR": "TSVCDREF"}, {"SDTMDOM": ["TS"], "SDTMVAR": "TSVCDVER"}, {"SDTMDOM": ["TU"], "SDTMVAR": "TUACPTFL"}, {"SDTMDOM": ["SUPPTU"], "SDTMVAR": "TUCYCVID"}, {"SDTMDOM": ["TU"], "SDTMVAR": "TUDTC"}, {"SDTMDOM": ["TU"], "SDTMVAR": "TUDY"}, {"SDTMDOM": ["TU"], "SDTMVAR": "TUEVAL"}, {"SDTMDOM": ["TU"], "SDTMVAR": "TUEVALID"}, {"SDTMDOM": ["TU"], "SDTMVAR": "TUGRPID"}, {"SDTMDOM": ["TU"], "SDTMVAR": "TULNKID"}, {"SDTMDOM": ["TU"], "SDTMVAR": "TULOC"}, {"SDTMDOM": ["SUPPTU"], "SDTMVAR": "TULOCDTL"}, {"SDTMDOM": ["TU"], "SDTMVAR": "TUMETHOD"}, {"SDTMDOM": ["SUPPTU"], "SDTMVAR": "TUMETOTH"}, {"SDTMDOM": ["TU"], "SDTMVAR": "TUNAM"}, {"SDTMDOM": ["TU"], "SDTMVAR": "TUORRES"}, {"SDTMDOM": ["TU"], "SDTMVAR": "TUSEQ"}, {"SDTMDOM": ["TU"], "SDTMVAR": "TUSTRESC"}, {"SDTMDOM": ["TU"], "SDTMVAR": "TUTEST"}, {"SDTMDOM": ["TU"], "SDTMVAR": "TUTESTCD"}, {"SDTMDOM": ["TV"], "SDTMVAR": "TVENRL"}, {"SDTMDOM": ["TV"], "SDTMVAR": "TVSTRL"}, {"SDTMDOM": ["AE", "AG", "CC", "CCLN", "CE", "CI", "CM", "CO", "CV", "DA", "DD", "DE", "DM", "DS", "DV", "EC", "EG", "EX", "FA", "FAAE", "FACE", "FAPR", "FARS", "FT", "HO", "IE", "IS", "IVRS", "LB", "LBUS", "LDV", "MH", "MI", "MK", "ML", "MO", "NV", "OE", "PC", "PE", "PF", "PP", "PR", "QS", "QSCQ", "QSEG", "QSKN", "QSPI", "QSMR", "RAND", "RE", "RELREC", "RP", "RS", "SC", "SE", "SR", "SS", "SU", "SV", "TR", "TU", "VS"], "SDTMVAR": "USUBJID"}, {"SDTMDOM": ["AG", "CC", "CCLN", "CE", "CM", "CO", "CV", "DA", "DD", "DE", "DS", "DV", "EC", "EG", "EX", "FA", "FAAE", "FACE", "FAPR", "FARS", "FT", "HO", "IE", "IS", "LB", "LBUS", "LDV", "MH", "MI", "MK", "ML", "MO", "NV", "OE", "PC", "PE", "PF", "PR", "QS", "QSCQ", "QSEG", "QSKN", "QSPI", "QSMR", "RE", "RP", "RS", "SR", "SS", "SU", "SV", "TR", "TU", "TV", "VS"], "SDTMVAR": "VISIT"}, {"SDTMDOM": ["AG", "CC", "CCLN", "CE", "CM", "CO", "CV", "DA", "DD", "DE", "DS", "DV", "EC", "EG", "EX", "FA", "FAAE", "FACE", "FAPR", "FARS", "FT", "IE", "IS", "LB", "LBUS", "LDV", "MH", "MI", "MK", "ML", "MO", "NV", "OE", "PC", "PE", "PF", "PR", "QS", "QSCQ", "QSEG", "QSKN", "QSPI", "QSMR", "RE", "RP", "RS", "SR", "SS", "SU", "SV", "TR", "TU", "TV", "VS"], "SDTMVAR": "VISITDY"}, {"SDTMDOM": ["AG", "CC", "CCLN", "CE", "CM", "CO", "CV", "DA", "DD", "DE", "DS", "DV", "EC", "EG", "EX", "FA", "FAAE", "FACE", "FAPR", "FARS", "FT", "HO", "IE", "IS", "IVRS", "LB", "LBUS", "LDV", "MH", "MI", "MK", "ML", "MO", "NV", "OE", "PC", "PE", "PF", "PR", "QS", "QSCQ", "QSEG", "QSKN", "QSPI", "QSMR", "RE", "RP", "RS", "SR", "SS", "SU", "SV", "TR", "TU", "TV", "VS"], "SDTMVAR": "VISITNUM"}, {"SDTMDOM": ["SUPPVS"], "SDTMVAR": "VSAENO"}, {"SDTMDOM": ["VS"], "SDTMVAR": "VSBLFL"}, {"SDTMDOM": ["VS"], "SDTMVAR": "VSCAT"}, {"SDTMDOM": ["SUPPVS"], "SDTMVAR": "VSCLSIG"}, {"SDTMDOM": ["VS"], "SDTMVAR": "VSDRVFL"}, {"SDTMDOM": ["VS"], "SDTMVAR": "VSDTC"}, {"SDTMDOM": ["VS"], "SDTMVAR": "VSDY"}, {"SDTMDOM": ["VS"], "SDTMVAR": "VSELTM"}, {"SDTMDOM": ["VS"], "SDTMVAR": "VSLNKID"}, {"SDTMDOM": ["VS"], "SDTMVAR": "VSLOC"}, {"SDTMDOM": ["VS"], "SDTMVAR": "VSMETHOD"}, {"SDTMDOM": ["VS"], "SDTMVAR": "VSORRES"}, {"SDTMDOM": ["VS"], "SDTMVAR": "VSORRESU"}, {"SDTMDOM": ["VS"], "SDTMVAR": "VSPOS"}, {"SDTMDOM": ["VS"], "SDTMVAR": "VSRFTDTC"}, {"SDTMDOM": ["VS"], "SDTMVAR": "VSSEQ"}, {"SDTMDOM": ["VS"], "SDTMVAR": "VSSTAT"}, {"SDTMDOM": ["SUPPVS"], "SDTMVAR": "VSSTPT"}, {"SDTMDOM": ["VS"], "SDTMVAR": "VSSTRESC"}, {"SDTMDOM": ["VS"], "SDTMVAR": "VSSTRESN"}, {"SDTMDOM": ["VS"], "SDTMVAR": "VSSTRESU"}, {"SDTMDOM": ["VS"], "SDTMVAR": "VSTEST"}, {"SDTMDOM": ["VS"], "SDTMVAR": "VSTESTCD"}, {"SDTMDOM": ["VS"], "SDTMVAR": "VSTPT"}, {"SDTMDOM": ["VS"], "SDTMVAR": "VSTPTNUM"}, {"SDTMDOM": ["VS"], "SDTMVAR": "VSTPTREF"}], "IGSDTM": [{"SDTMDOM": ["DM"], "SDTMVAR": "ACTARM"}, {"SDTMDOM": ["DM"], "SDTMVAR": "ACTARMCD"}, {"SDTMDOM": ["DM"], "SDTMVAR": "ACTARMUD"}, {"SDTMDOM": ["DM"], "SDTMVAR": "AGE"}, {"SDTMDOM": ["DM"], "SDTMVAR": "AGETXT"}, {"SDTMDOM": ["DM"], "SDTMVAR": "AGEU"}, {"SDTMDOM": ["RELREC", "SUPPQUAL", "POOLDEF", "APRELSUB"], "SDTMVAR": "APID"}, {"SDTMDOM": ["DM", "TA", "TV"], "SDTMVAR": "ARM"}, {"SDTMDOM": ["DM", "TA", "TV"], "SDTMVAR": "ARMCD"}, {"SDTMDOM": ["DM"], "SDTMVAR": "ARMNRS"}, {"SDTMDOM": ["DM"], "SDTMVAR": "BRTHDTC"}, {"SDTMDOM": ["CO"], "SDTMVAR": "CODTC"}, {"SDTMDOM": ["CO"], "SDTMVAR": "CODY"}, {"SDTMDOM": ["CO"], "SDTMVAR": "COEVAL"}, {"SDTMDOM": ["CO"], "SDTMVAR": "COEVALID"}, {"SDTMDOM": ["CO"], "SDTMVAR": "COREF"}, {"SDTMDOM": ["CO"], "SDTMVAR": "COSEQ"}, {"SDTMDOM": ["DM"], "SDTMVAR": "COUNTRY"}, {"SDTMDOM": ["CO"], "SDTMVAR": "COVAL"}, {"SDTMDOM": ["DI"], "SDTMVAR": "DIPARM"}, {"SDTMDOM": ["DI"], "SDTMVAR": "DIPARMCD"}, {"SDTMDOM": ["DI"], "SDTMVAR": "DISEQ"}, {"SDTMDOM": ["DI"], "SDTMVAR": "DIVAL"}, {"SDTMDOM": ["DM"], "SDTMVAR": "DMDTC"}, {"SDTMDOM": ["DM"], "SDTMVAR": "DMDY"}, {"SDTMDOM": ["DM", "CO", "SE", "SV", "SM", "SJ", "TE", "TA", "TV", "TX", "TT", "TP", "TI", "TS", "TD", "TM", "DR", "DI", "OI"], "SDTMVAR": "DOMAIN"}, {"SDTMDOM": ["DM"], "SDTMVAR": "DTHDTC"}, {"SDTMDOM": ["DM"], "SDTMVAR": "DTHFL"}, {"SDTMDOM": ["SE", "TE", "TA"], "SDTMVAR": "ELEMENT"}, {"SDTMDOM": ["SE", "TA"], "SDTMVAR": "EPOCH"}, {"SDTMDOM": ["SE", "TE", "TA"], "SDTMVAR": "ETCD"}, {"SDTMDOM": ["DM"], "SDTMVAR": "ETHNIC"}, {"SDTMDOM": ["CO", "RELREC", "SUPPQUAL"], "SDTMVAR": "IDVAR"}, {"SDTMDOM": ["CO", "RELREC", "SUPPQUAL"], "SDTMVAR": "IDVARVAL"}, {"SDTMDOM": ["TI"], "SDTMVAR": "IECAT"}, {"SDTMDOM": ["TI"], "SDTMVAR": "IESCAT"}, {"SDTMDOM": ["TI"], "SDTMVAR": "IETEST"}, {"SDTMDOM": ["TI"], "SDTMVAR": "IETESTCD"}, {"SDTMDOM": ["DM"], "SDTMVAR": "INVID"}, {"SDTMDOM": ["DM"], "SDTMVAR": "INVNAM"}, {"SDTMDOM": ["SM"], "SDTMVAR": "MIDS"}, {"SDTMDOM": ["SM", "TM"], "SDTMVAR": "MIDSTYPE"}, {"SDTMDOM": ["OI"], "SDTMVAR": "NHOID"}, {"SDTMDOM": ["OI"], "SDTMVAR": "OIPARM"}, {"SDTMDOM": ["OI"], "SDTMVAR": "OIPARMCD"}, {"SDTMDOM": ["OI"], "SDTMVAR": "OISEQ"}, {"SDTMDOM": ["OI"], "SDTMVAR": "OIVAL"}, {"SDTMDOM": ["CO", "RELREC", "SUPPQUAL", "POOLDEF", "RELSUB"], "SDTMVAR": "POOLID"}, {"SDTMDOM": ["SUPPQUAL"], "SDTMVAR": "QEVAL"}, {"SDTMDOM": ["SUPPQUAL"], "SDTMVAR": "QLABEL"}, {"SDTMDOM": ["SUPPQUAL"], "SDTMVAR": "QNAM"}, {"SDTMDOM": ["SUPPQUAL"], "SDTMVAR": "QORIG"}, {"SDTMDOM": ["SUPPQUAL"], "SDTMVAR": "QVAL"}, {"SDTMDOM": ["DM"], "SDTMVAR": "RACE"}, {"SDTMDOM": ["APRELSUB"], "SDTMVAR": "RDEVID"}, {"SDTMDOM": ["CO", "RELREC", "SUPPQUAL"], "SDTMVAR": "RDOMAIN"}, {"SDTMDOM": ["RELREC"], "SDTMVAR": "RELID"}, {"SDTMDOM": ["RELREC"], "SDTMVAR": "RELTYPE"}, {"SDTMDOM": ["DM"], "SDTMVAR": "RFENDTC"}, {"SDTMDOM": ["DM"], "SDTMVAR": "RFICDTC"}, {"SDTMDOM": ["DM"], "SDTMVAR": "RFPENDTC"}, {"SDTMDOM": ["DM"], "SDTMVAR": "RFSTDTC"}, {"SDTMDOM": ["DM"], "SDTMVAR": "RFXENDTC"}, {"SDTMDOM": ["DM"], "SDTMVAR": "RFXSTDTC"}, {"SDTMDOM": ["TP"], "SDTMVAR": "RPATH"}, {"SDTMDOM": ["DM", "TP"], "SDTMVAR": "RPATHCD"}, {"SDTMDOM": ["SJ", "TP"], "SDTMVAR": "RPHASE"}, {"SDTMDOM": ["TP"], "SDTMVAR": "RPRFDY"}, {"SDTMDOM": ["SJ", "TT", "TP"], "SDTMVAR": "RSTAGE"}, {"SDTMDOM": ["SJ", "TT", "TP"], "SDTMVAR": "RSTGCD"}, {"SDTMDOM": ["RELSUB", "APRELSUB"], "SDTMVAR": "RSUBJID"}, {"SDTMDOM": ["DM"], "SDTMVAR": "SBSTRAIN"}, {"SDTMDOM": ["SE"], "SDTMVAR": "SEENDTC"}, {"SDTMDOM": ["SE"], "SDTMVAR": "SESEQ"}, {"SDTMDOM": ["SE"], "SDTMVAR": "SESTDTC"}, {"SDTMDOM": ["TX"], "SDTMVAR": "SET"}, {"SDTMDOM": ["DM", "TX"], "SDTMVAR": "SETCD"}, {"SDTMDOM": ["SE"], "SDTMVAR": "SEUPDES"}, {"SDTMDOM": ["DM"], "SDTMVAR": "SEX"}, {"SDTMDOM": ["DM"], "SDTMVAR": "SITEID"}, {"SDTMDOM": ["SJ"], "SDTMVAR": "SJENDTC"}, {"SDTMDOM": ["SJ"], "SDTMVAR": "SJSEQ"}, {"SDTMDOM": ["SJ"], "SDTMVAR": "SJSTDTC"}, {"SDTMDOM": ["SJ"], "SDTMVAR": "SJUPDES"}, {"SDTMDOM": ["SM"], "SDTMVAR": "SMENDTC"}, {"SDTMDOM": ["SM"], "SDTMVAR": "SMENDY"}, {"SDTMDOM": ["SM"], "SDTMVAR": "SMSEQ"}, {"SDTMDOM": ["SM"], "SDTMVAR": "SMSTDTC"}, {"SDTMDOM": ["SM"], "SDTMVAR": "SMSTDY"}, {"SDTMDOM": ["DR", "DI"], "SDTMVAR": "SPDEVID"}, {"SDTMDOM": ["DM"], "SDTMVAR": "SPECIES"}, {"SDTMDOM": ["RELSUB", "APRELSUB"], "SDTMVAR": "SREL"}, {"SDTMDOM": ["DM"], "SDTMVAR": "STRAIN"}, {"SDTMDOM": ["DM", "CO", "SE", "SV", "SM", "SJ", "TE", "TA", "TV", "TX", "TT", "TP", "TI", "TS", "TD", "TM", "RELREC", "SUPPQUAL", "POOLDEF", "RELSUB", "DR", "DI", "OI", "APRELSUB"], "SDTMVAR": "STUDYID"}, {"SDTMDOM": ["DM"], "SDTMVAR": "SUBJID"}, {"SDTMDOM": ["SV"], "SDTMVAR": "SVENDTC"}, {"SDTMDOM": ["SV"], "SDTMVAR": "SVENDY"}, {"SDTMDOM": ["SV"], "SDTMVAR": "SVSTDTC"}, {"SDTMDOM": ["SV"], "SDTMVAR": "SVSTDY"}, {"SDTMDOM": ["SV"], "SDTMVAR": "SVUPDES"}, {"SDTMDOM": ["TA"], "SDTMVAR": "TABRANCH"}, {"SDTMDOM": ["SE", "TA"], "SDTMVAR": "TAETORD"}, {"SDTMDOM": ["TA"], "SDTMVAR": "TATRANS"}, {"SDTMDOM": ["TD"], "SDTMVAR": "TDANCVAR"}, {"SDTMDOM": ["TD"], "SDTMVAR": "TDMAXPAI"}, {"SDTMDOM": ["TD"], "SDTMVAR": "TDMINPAI"}, {"SDTMDOM": ["TD"], "SDTMVAR": "TDNUMRPT"}, {"SDTMDOM": ["TD"], "SDTMVAR": "TDORDER"}, {"SDTMDOM": ["TD"], "SDTMVAR": "TDSTOFF"}, {"SDTMDOM": ["TD"], "SDTMVAR": "TDTGTPAI"}, {"SDTMDOM": ["TE"], "SDTMVAR": "TEDUR"}, {"SDTMDOM": ["TE"], "SDTMVAR": "TEENRL"}, {"SDTMDOM": ["TE"], "SDTMVAR": "TESTRL"}, {"SDTMDOM": ["TI"], "SDTMVAR": "TIRL"}, {"SDTMDOM": ["TI"], "SDTMVAR": "TIVERS"}, {"SDTMDOM": ["TM"], "SDTMVAR": "TMDEF"}, {"SDTMDOM": ["TM"], "SDTMVAR": "TMRPT"}, {"SDTMDOM": ["TP"], "SDTMVAR": "TPBRANCH"}, {"SDTMDOM": ["TP"], "SDTMVAR": "TPSTGORD"}, {"SDTMDOM": ["TS"], "SDTMVAR": "TSGRPID"}, {"SDTMDOM": ["TS"], "SDTMVAR": "TSPARM"}, {"SDTMDOM": ["TS"], "SDTMVAR": "TSPARMCD"}, {"SDTMDOM": ["TS"], "SDTMVAR": "TSSEQ"}, {"SDTMDOM": ["TS"], "SDTMVAR": "TSVAL"}, {"SDTMDOM": ["TS"], "SDTMVAR": "TSVALCD"}, {"SDTMDOM": ["TS"], "SDTMVAR": "TSVALNF"}, {"SDTMDOM": ["TS"], "SDTMVAR": "TSVCDREF"}, {"SDTMDOM": ["TS"], "SDTMVAR": "TSVCDVER"}, {"SDTMDOM": ["TT"], "SDTMVAR": "TTDUR"}, {"SDTMDOM": ["TT"], "SDTMVAR": "TTENRL"}, {"SDTMDOM": ["TT"], "SDTMVAR": "TTSTRL"}, {"SDTMDOM": ["TV"], "SDTMVAR": "TVENRL"}, {"SDTMDOM": ["TV"], "SDTMVAR": "TVSTRL"}, {"SDTMDOM": ["TX"], "SDTMVAR": "TXPARM"}, {"SDTMDOM": ["TX"], "SDTMVAR": "TXPARMCD"}, {"SDTMDOM": ["TX"], "SDTMVAR": "TXSEQ"}, {"SDTMDOM": ["TX"], "SDTMVAR": "TXVAL"}, {"SDTMDOM": ["DM", "CO", "SE", "SV", "SM", "SJ", "RELREC", "SUPPQUAL", "POOLDEF", "RELSUB", "DR"], "SDTMVAR": "USUBJID"}, {"SDTMDOM": ["SV", "TV"], "SDTMVAR": "VISIT"}, {"SDTMDOM": ["SV", "TV"], "SDTMVAR": "VISITDY"}, {"SDTMDOM": ["SV", "TV"], "SDTMVAR": "VISITNUM"}]}